{
    "ParticipantID": "Pilot8",
    "_timeCreated": "17:47:58",
    "_dateCreated": "2022-12-02",
    "NumberOfBatches": 4,
    "SessionBlueprint": {
        "NumberOfBatches": 4,
        "FirstDisplayTarget": 1,
        "FirstVideoType": 0,
        "BatchBlueprints": [
            {
                "NumberOfTrialsInBatch": 28,
                "WhichDisplayTarget": 1,
                "WhichVideoType": 0
            },
            {
                "NumberOfTrialsInBatch": 28,
                "WhichDisplayTarget": 1,
                "WhichVideoType": 1
            },
            {
                "NumberOfTrialsInBatch": 27,
                "WhichDisplayTarget": 1,
                "WhichVideoType": 0
            },
            {
                "NumberOfTrialsInBatch": 27,
                "WhichDisplayTarget": 1,
                "WhichVideoType": 1
            }
        ]
    },
    "Batches": [
        {
            "Trials": [
                {
                    "DisplayTarget": "AR",
                    "Video": "beep_video14",
                    "Response": {
                        "MouseResponse": 1,
                        "ResponseTime": 9.70626449584961
                    },
                    "TrialNumber": 1,
                    "ParentBatchNumber": 1
                },
                {
                    "DisplayTarget": "AR",
                    "Video": "beep_video4",
                    "Response": {
                        "MouseResponse": 1,
                        "ResponseTime": 2.0771217346191408
                    },
                    "TrialNumber": 2,
                    "ParentBatchNumber": 1
                },
                {
                    "DisplayTarget": "AR",
                    "Video": "beep_video10",
                    "Response": {
                        "MouseResponse": 1,
                        "ResponseTime": 2.5635223388671877
                    },
                    "TrialNumber": 3,
                    "ParentBatchNumber": 1
                },
                {
                    "DisplayTarget": "AR",
                    "Video": "beep_video7",
                    "Response": {
                        "MouseResponse": 0,
                        "ResponseTime": 8.947601318359375
                    },
                    "TrialNumber": 4,
                    "ParentBatchNumber": 1
                },
                {
                    "DisplayTarget": "AR",
                    "Video": "beep_video5",
                    "Response": {
                        "MouseResponse": 1,
                        "ResponseTime": 4.634227752685547
                    },
                    "TrialNumber": 5,
                    "ParentBatchNumber": 1
                },
                {
                    "DisplayTarget": "AR",
                    "Video": "beep_video7",
                    "Response": {
                        "MouseResponse": 1,
                        "ResponseTime": 2.0834579467773439
                    },
                    "TrialNumber": 6,
                    "ParentBatchNumber": 1
                },
                {
                    "DisplayTarget": "AR",
                    "Video": "beep_video6",
                    "Response": {
                        "MouseResponse": 1,
                        "ResponseTime": 1.9723358154296876
                    },
                    "TrialNumber": 7,
                    "ParentBatchNumber": 1
                },
                {
                    "DisplayTarget": "AR",
                    "Video": "beep_video6",
                    "Response": {
                        "MouseResponse": 0,
                        "ResponseTime": 5.299934387207031
                    },
                    "TrialNumber": 8,
                    "ParentBatchNumber": 1
                },
                {
                    "DisplayTarget": "AR",
                    "Video": "beep_video9",
                    "Response": {
                        "MouseResponse": 1,
                        "ResponseTime": 1.8337783813476563
                    },
                    "TrialNumber": 9,
                    "ParentBatchNumber": 1
                },
                {
                    "DisplayTarget": "AR",
                    "Video": "beep_video9",
                    "Response": {
                        "MouseResponse": 0,
                        "ResponseTime": 1.617156982421875
                    },
                    "TrialNumber": 10,
                    "ParentBatchNumber": 1
                },
                {
                    "DisplayTarget": "AR",
                    "Video": "beep_video8",
                    "Response": {
                        "MouseResponse": 1,
                        "ResponseTime": 1.9925460815429688
                    },
                    "TrialNumber": 11,
                    "ParentBatchNumber": 1
                },
                {
                    "DisplayTarget": "AR",
                    "Video": "beep_video11",
                    "Response": {
                        "MouseResponse": 1,
                        "ResponseTime": 2.9651641845703127
                    },
                    "TrialNumber": 12,
                    "ParentBatchNumber": 1
                },
                {
                    "DisplayTarget": "AR",
                    "Video": "beep_video13",
                    "Response": {
                        "MouseResponse": 1,
                        "ResponseTime": 1.956817626953125
                    },
                    "TrialNumber": 13,
                    "ParentBatchNumber": 1
                },
                {
                    "DisplayTarget": "AR",
                    "Video": "beep_video6",
                    "Response": {
                        "MouseResponse": 0,
                        "ResponseTime": 1.5368881225585938
                    },
                    "TrialNumber": 14,
                    "ParentBatchNumber": 1
                },
                {
                    "DisplayTarget": "AR",
                    "Video": "beep_video10",
                    "Response": {
                        "MouseResponse": 1,
                        "ResponseTime": 1.6610183715820313
                    },
                    "TrialNumber": 15,
                    "ParentBatchNumber": 1
                },
                {
                    "DisplayTarget": "AR",
                    "Video": "beep_video14",
                    "Response": {
                        "MouseResponse": 1,
                        "ResponseTime": 2.2997512817382814
                    },
                    "TrialNumber": 16,
                    "ParentBatchNumber": 1
                },
                {
                    "DisplayTarget": "AR",
                    "Video": "beep_video5",
                    "Response": {
                        "MouseResponse": 1,
                        "ResponseTime": 3.73345947265625
                    },
                    "TrialNumber": 17,
                    "ParentBatchNumber": 1
                },
                {
                    "DisplayTarget": "AR",
                    "Video": "beep_video7",
                    "Response": {
                        "MouseResponse": 1,
                        "ResponseTime": 2.0342864990234377
                    },
                    "TrialNumber": 18,
                    "ParentBatchNumber": 1
                },
                {
                    "DisplayTarget": "AR",
                    "Video": "beep_video14",
                    "Response": {
                        "MouseResponse": 1,
                        "ResponseTime": 2.1030960083007814
                    },
                    "TrialNumber": 19,
                    "ParentBatchNumber": 1
                },
                {
                    "DisplayTarget": "AR",
                    "Video": "beep_video13",
                    "Response": {
                        "MouseResponse": 1,
                        "ResponseTime": 2.2448806762695314
                    },
                    "TrialNumber": 20,
                    "ParentBatchNumber": 1
                },
                {
                    "DisplayTarget": "AR",
                    "Video": "beep_video14",
                    "Response": {
                        "MouseResponse": 0,
                        "ResponseTime": 3.3528518676757814
                    },
                    "TrialNumber": 21,
                    "ParentBatchNumber": 1
                },
                {
                    "DisplayTarget": "AR",
                    "Video": "beep_video6",
                    "Response": {
                        "MouseResponse": 1,
                        "ResponseTime": 1.873443603515625
                    },
                    "TrialNumber": 22,
                    "ParentBatchNumber": 1
                },
                {
                    "DisplayTarget": "AR",
                    "Video": "beep_video10",
                    "Response": {
                        "MouseResponse": 0,
                        "ResponseTime": 2.113983154296875
                    },
                    "TrialNumber": 23,
                    "ParentBatchNumber": 1
                },
                {
                    "DisplayTarget": "AR",
                    "Video": "beep_video13",
                    "Response": {
                        "MouseResponse": 0,
                        "ResponseTime": 2.980316162109375
                    },
                    "TrialNumber": 24,
                    "ParentBatchNumber": 1
                },
                {
                    "DisplayTarget": "AR",
                    "Video": "beep_video4",
                    "Response": {
                        "MouseResponse": 1,
                        "ResponseTime": 1.7433929443359376
                    },
                    "TrialNumber": 25,
                    "ParentBatchNumber": 1
                },
                {
                    "DisplayTarget": "AR",
                    "Video": "beep_video12",
                    "Response": {
                        "MouseResponse": 0,
                        "ResponseTime": 2.68212890625
                    },
                    "TrialNumber": 26,
                    "ParentBatchNumber": 1
                },
                {
                    "DisplayTarget": "AR",
                    "Video": "beep_video12",
                    "Response": {
                        "MouseResponse": 0,
                        "ResponseTime": 2.1478424072265627
                    },
                    "TrialNumber": 27,
                    "ParentBatchNumber": 1
                },
                {
                    "DisplayTarget": "AR",
                    "Video": "beep_video5",
                    "Response": {
                        "MouseResponse": 1,
                        "ResponseTime": 2.1947174072265627
                    },
                    "TrialNumber": 28,
                    "ParentBatchNumber": 1
                }
            ],
            "TargetDisplay": 1,
            "VideoType": 0,
            "IntendedBatchSize": 28
        },
        {
            "Trials": [
                {
                    "DisplayTarget": "AR",
                    "Video": "violin_video9",
                    "Response": {
                        "MouseResponse": 1,
                        "ResponseTime": 6.321258544921875
                    },
                    "TrialNumber": 1,
                    "ParentBatchNumber": 2
                },
                {
                    "DisplayTarget": "AR",
                    "Video": "violin_video4",
                    "Response": {
                        "MouseResponse": 1,
                        "ResponseTime": 1.92645263671875
                    },
                    "TrialNumber": 2,
                    "ParentBatchNumber": 2
                },
                {
                    "DisplayTarget": "AR",
                    "Video": "violin_video14",
                    "Response": {
                        "MouseResponse": 1,
                        "ResponseTime": 1.9993133544921876
                    },
                    "TrialNumber": 3,
                    "ParentBatchNumber": 2
                },
                {
                    "DisplayTarget": "AR",
                    "Video": "violin_video9",
                    "Response": {
                        "MouseResponse": 0,
                        "ResponseTime": 1.796630859375
                    },
                    "TrialNumber": 4,
                    "ParentBatchNumber": 2
                },
                {
                    "DisplayTarget": "AR",
                    "Video": "violin_video6",
                    "Response": {
                        "MouseResponse": 1,
                        "ResponseTime": 1.5326690673828126
                    },
                    "TrialNumber": 5,
                    "ParentBatchNumber": 2
                },
                {
                    "DisplayTarget": "AR",
                    "Video": "violin_video7",
                    "Response": {
                        "MouseResponse": 0,
                        "ResponseTime": 3.930572509765625
                    },
                    "TrialNumber": 6,
                    "ParentBatchNumber": 2
                },
                {
                    "DisplayTarget": "AR",
                    "Video": "violin_video9",
                    "Response": {
                        "MouseResponse": 1,
                        "ResponseTime": 2.7325897216796877
                    },
                    "TrialNumber": 7,
                    "ParentBatchNumber": 2
                },
                {
                    "DisplayTarget": "AR",
                    "Video": "violin_video14",
                    "Response": {
                        "MouseResponse": 1,
                        "ResponseTime": 1.574249267578125
                    },
                    "TrialNumber": 8,
                    "ParentBatchNumber": 2
                },
                {
                    "DisplayTarget": "AR",
                    "Video": "violin_video5",
                    "Response": {
                        "MouseResponse": 1,
                        "ResponseTime": 3.8161163330078127
                    },
                    "TrialNumber": 9,
                    "ParentBatchNumber": 2
                },
                {
                    "DisplayTarget": "AR",
                    "Video": "violin_video10",
                    "Response": {
                        "MouseResponse": 0,
                        "ResponseTime": 3.144775390625
                    },
                    "TrialNumber": 10,
                    "ParentBatchNumber": 2
                },
                {
                    "DisplayTarget": "AR",
                    "Video": "violin_video11",
                    "Response": {
                        "MouseResponse": 0,
                        "ResponseTime": 2.126739501953125
                    },
                    "TrialNumber": 11,
                    "ParentBatchNumber": 2
                },
                {
                    "DisplayTarget": "AR",
                    "Video": "violin_video7",
                    "Response": {
                        "MouseResponse": 1,
                        "ResponseTime": 1.789459228515625
                    },
                    "TrialNumber": 12,
                    "ParentBatchNumber": 2
                },
                {
                    "DisplayTarget": "AR",
                    "Video": "violin_video7",
                    "Response": {
                        "MouseResponse": 1,
                        "ResponseTime": 1.828338623046875
                    },
                    "TrialNumber": 13,
                    "ParentBatchNumber": 2
                },
                {
                    "DisplayTarget": "AR",
                    "Video": "violin_video6",
                    "Response": {
                        "MouseResponse": 0,
                        "ResponseTime": 2.154937744140625
                    },
                    "TrialNumber": 14,
                    "ParentBatchNumber": 2
                },
                {
                    "DisplayTarget": "AR",
                    "Video": "violin_video13",
                    "Response": {
                        "MouseResponse": 0,
                        "ResponseTime": 1.8486328125
                    },
                    "TrialNumber": 15,
                    "ParentBatchNumber": 2
                },
                {
                    "DisplayTarget": "AR",
                    "Video": "violin_video12",
                    "Response": {
                        "MouseResponse": 0,
                        "ResponseTime": 1.756622314453125
                    },
                    "TrialNumber": 16,
                    "ParentBatchNumber": 2
                },
                {
                    "DisplayTarget": "AR",
                    "Video": "violin_video8",
                    "Response": {
                        "MouseResponse": 1,
                        "ResponseTime": 1.617523193359375
                    },
                    "TrialNumber": 17,
                    "ParentBatchNumber": 2
                },
                {
                    "DisplayTarget": "AR",
                    "Video": "violin_video12",
                    "Response": {
                        "MouseResponse": 0,
                        "ResponseTime": 1.805511474609375
                    },
                    "TrialNumber": 18,
                    "ParentBatchNumber": 2
                },
                {
                    "DisplayTarget": "AR",
                    "Video": "violin_video5",
                    "Response": {
                        "MouseResponse": 1,
                        "ResponseTime": 1.527496337890625
                    },
                    "TrialNumber": 19,
                    "ParentBatchNumber": 2
                },
                {
                    "DisplayTarget": "AR",
                    "Video": "violin_video9",
                    "Response": {
                        "MouseResponse": 1,
                        "ResponseTime": 1.62713623046875
                    },
                    "TrialNumber": 20,
                    "ParentBatchNumber": 2
                },
                {
                    "DisplayTarget": "AR",
                    "Video": "violin_video8",
                    "Response": {
                        "MouseResponse": 0,
                        "ResponseTime": 2.030670166015625
                    },
                    "TrialNumber": 21,
                    "ParentBatchNumber": 2
                },
                {
                    "DisplayTarget": "AR",
                    "Video": "violin_video14",
                    "Response": {
                        "MouseResponse": 0,
                        "ResponseTime": 1.81646728515625
                    },
                    "TrialNumber": 22,
                    "ParentBatchNumber": 2
                },
                {
                    "DisplayTarget": "AR",
                    "Video": "violin_video10",
                    "Response": {
                        "MouseResponse": 0,
                        "ResponseTime": 1.456268310546875
                    },
                    "TrialNumber": 23,
                    "ParentBatchNumber": 2
                },
                {
                    "DisplayTarget": "AR",
                    "Video": "violin_video13",
                    "Response": {
                        "MouseResponse": 0,
                        "ResponseTime": 2.12762451171875
                    },
                    "TrialNumber": 24,
                    "ParentBatchNumber": 2
                },
                {
                    "DisplayTarget": "AR",
                    "Video": "violin_video14",
                    "Response": {
                        "MouseResponse": 0,
                        "ResponseTime": 1.836151123046875
                    },
                    "TrialNumber": 25,
                    "ParentBatchNumber": 2
                },
                {
                    "DisplayTarget": "AR",
                    "Video": "violin_video8",
                    "Response": {
                        "MouseResponse": 0,
                        "ResponseTime": 1.721221923828125
                    },
                    "TrialNumber": 26,
                    "ParentBatchNumber": 2
                },
                {
                    "DisplayTarget": "AR",
                    "Video": "violin_video8",
                    "Response": {
                        "MouseResponse": 0,
                        "ResponseTime": 1.62042236328125
                    },
                    "TrialNumber": 27,
                    "ParentBatchNumber": 2
                },
                {
                    "DisplayTarget": "AR",
                    "Video": "violin_video9",
                    "Response": {
                        "MouseResponse": 0,
                        "ResponseTime": 2.8128662109375
                    },
                    "TrialNumber": 28,
                    "ParentBatchNumber": 2
                }
            ],
            "TargetDisplay": 1,
            "VideoType": 1,
            "IntendedBatchSize": 28
        },
        {
            "Trials": [
                {
                    "DisplayTarget": "AR",
                    "Video": "beep_video11",
                    "Response": {
                        "MouseResponse": 0,
                        "ResponseTime": 3.793302536010742
                    },
                    "TrialNumber": 1,
                    "ParentBatchNumber": 3
                },
                {
                    "DisplayTarget": "AR",
                    "Video": "beep_video7",
                    "Response": {
                        "MouseResponse": 1,
                        "ResponseTime": 1.5997047424316407
                    },
                    "TrialNumber": 2,
                    "ParentBatchNumber": 3
                },
                {
                    "DisplayTarget": "AR",
                    "Video": "beep_video11",
                    "Response": {
                        "MouseResponse": 1,
                        "ResponseTime": 2.6465187072753908
                    },
                    "TrialNumber": 3,
                    "ParentBatchNumber": 3
                },
                {
                    "DisplayTarget": "AR",
                    "Video": "beep_video4",
                    "Response": {
                        "MouseResponse": 1,
                        "ResponseTime": 4.3907318115234379
                    },
                    "TrialNumber": 4,
                    "ParentBatchNumber": 3
                },
                {
                    "DisplayTarget": "AR",
                    "Video": "beep_video14",
                    "Response": {
                        "MouseResponse": 0,
                        "ResponseTime": 3.1781463623046877
                    },
                    "TrialNumber": 5,
                    "ParentBatchNumber": 3
                },
                {
                    "DisplayTarget": "AR",
                    "Video": "beep_video11",
                    "Response": {
                        "MouseResponse": 0,
                        "ResponseTime": 2.056934356689453
                    },
                    "TrialNumber": 6,
                    "ParentBatchNumber": 3
                },
                {
                    "DisplayTarget": "AR",
                    "Video": "beep_video13",
                    "Response": {
                        "MouseResponse": 1,
                        "ResponseTime": 2.9294586181640627
                    },
                    "TrialNumber": 7,
                    "ParentBatchNumber": 3
                },
                {
                    "DisplayTarget": "AR",
                    "Video": "beep_video11",
                    "Response": {
                        "MouseResponse": 0,
                        "ResponseTime": 2.3846092224121095
                    },
                    "TrialNumber": 8,
                    "ParentBatchNumber": 3
                },
                {
                    "DisplayTarget": "AR",
                    "Video": "beep_video12",
                    "Response": {
                        "MouseResponse": 1,
                        "ResponseTime": 1.8956794738769532
                    },
                    "TrialNumber": 9,
                    "ParentBatchNumber": 3
                },
                {
                    "DisplayTarget": "AR",
                    "Video": "beep_video7",
                    "Response": {
                        "MouseResponse": 1,
                        "ResponseTime": 4.058322906494141
                    },
                    "TrialNumber": 10,
                    "ParentBatchNumber": 3
                },
                {
                    "DisplayTarget": "AR",
                    "Video": "beep_video13",
                    "Response": {
                        "MouseResponse": 1,
                        "ResponseTime": 3.121185302734375
                    },
                    "TrialNumber": 11,
                    "ParentBatchNumber": 3
                },
                {
                    "DisplayTarget": "AR",
                    "Video": "beep_video5",
                    "Response": {
                        "MouseResponse": 0,
                        "ResponseTime": 2.7276992797851564
                    },
                    "TrialNumber": 12,
                    "ParentBatchNumber": 3
                },
                {
                    "DisplayTarget": "AR",
                    "Video": "beep_video12",
                    "Response": {
                        "MouseResponse": 1,
                        "ResponseTime": 1.9312896728515626
                    },
                    "TrialNumber": 13,
                    "ParentBatchNumber": 3
                },
                {
                    "DisplayTarget": "AR",
                    "Video": "beep_video5",
                    "Response": {
                        "MouseResponse": 1,
                        "ResponseTime": 2.2489843368530275
                    },
                    "TrialNumber": 14,
                    "ParentBatchNumber": 3
                },
                {
                    "DisplayTarget": "AR",
                    "Video": "beep_video6",
                    "Response": {
                        "MouseResponse": 1,
                        "ResponseTime": 1.5734386444091797
                    },
                    "TrialNumber": 15,
                    "ParentBatchNumber": 3
                },
                {
                    "DisplayTarget": "AR",
                    "Video": "beep_video4",
                    "Response": {
                        "MouseResponse": 1,
                        "ResponseTime": 2.0570640563964845
                    },
                    "TrialNumber": 16,
                    "ParentBatchNumber": 3
                },
                {
                    "DisplayTarget": "AR",
                    "Video": "beep_video10",
                    "Response": {
                        "MouseResponse": 0,
                        "ResponseTime": 1.8222389221191407
                    },
                    "TrialNumber": 17,
                    "ParentBatchNumber": 3
                },
                {
                    "DisplayTarget": "AR",
                    "Video": "beep_video12",
                    "Response": {
                        "MouseResponse": 1,
                        "ResponseTime": 2.1120338439941408
                    },
                    "TrialNumber": 18,
                    "ParentBatchNumber": 3
                },
                {
                    "DisplayTarget": "AR",
                    "Video": "beep_video9",
                    "Response": {
                        "MouseResponse": 1,
                        "ResponseTime": 2.318998336791992
                    },
                    "TrialNumber": 19,
                    "ParentBatchNumber": 3
                },
                {
                    "DisplayTarget": "AR",
                    "Video": "beep_video10",
                    "Response": {
                        "MouseResponse": 0,
                        "ResponseTime": 2.18975830078125
                    },
                    "TrialNumber": 20,
                    "ParentBatchNumber": 3
                },
                {
                    "DisplayTarget": "AR",
                    "Video": "beep_video8",
                    "Response": {
                        "MouseResponse": 0,
                        "ResponseTime": 2.513011932373047
                    },
                    "TrialNumber": 21,
                    "ParentBatchNumber": 3
                },
                {
                    "DisplayTarget": "AR",
                    "Video": "beep_video4",
                    "Response": {
                        "MouseResponse": 1,
                        "ResponseTime": 2.5541038513183595
                    },
                    "TrialNumber": 22,
                    "ParentBatchNumber": 3
                },
                {
                    "DisplayTarget": "AR",
                    "Video": "beep_video8",
                    "Response": {
                        "MouseResponse": 0,
                        "ResponseTime": 2.0480613708496095
                    },
                    "TrialNumber": 23,
                    "ParentBatchNumber": 3
                },
                {
                    "DisplayTarget": "AR",
                    "Video": "beep_video8",
                    "Response": {
                        "MouseResponse": 1,
                        "ResponseTime": 1.8977127075195313
                    },
                    "TrialNumber": 24,
                    "ParentBatchNumber": 3
                },
                {
                    "DisplayTarget": "AR",
                    "Video": "beep_video9",
                    "Response": {
                        "MouseResponse": 0,
                        "ResponseTime": 2.1308860778808595
                    },
                    "TrialNumber": 25,
                    "ParentBatchNumber": 3
                },
                {
                    "DisplayTarget": "AR",
                    "Video": "beep_video8",
                    "Response": {
                        "MouseResponse": 1,
                        "ResponseTime": 2.245410919189453
                    },
                    "TrialNumber": 26,
                    "ParentBatchNumber": 3
                },
                {
                    "DisplayTarget": "AR",
                    "Video": "beep_video9",
                    "Response": {
                        "MouseResponse": 0,
                        "ResponseTime": 1.9147109985351563
                    },
                    "TrialNumber": 27,
                    "ParentBatchNumber": 3
                }
            ],
            "TargetDisplay": 1,
            "VideoType": 0,
            "IntendedBatchSize": 27
        },
        {
            "Trials": [
                {
                    "DisplayTarget": "AR",
                    "Video": "violin_video13",
                    "Response": {
                        "MouseResponse": 0,
                        "ResponseTime": 4.9608001708984379
                    },
                    "TrialNumber": 1,
                    "ParentBatchNumber": 4
                },
                {
                    "DisplayTarget": "AR",
                    "Video": "violin_video5",
                    "Response": {
                        "MouseResponse": 1,
                        "ResponseTime": 1.56646728515625
                    },
                    "TrialNumber": 2,
                    "ParentBatchNumber": 4
                },
                {
                    "DisplayTarget": "AR",
                    "Video": "violin_video4",
                    "Response": {
                        "MouseResponse": 1,
                        "ResponseTime": 1.4347152709960938
                    },
                    "TrialNumber": 3,
                    "ParentBatchNumber": 4
                },
                {
                    "DisplayTarget": "AR",
                    "Video": "violin_video12",
                    "Response": {
                        "MouseResponse": 0,
                        "ResponseTime": 2.2946090698242189
                    },
                    "TrialNumber": 4,
                    "ParentBatchNumber": 4
                },
                {
                    "DisplayTarget": "AR",
                    "Video": "violin_video7",
                    "Response": {
                        "MouseResponse": 0,
                        "ResponseTime": 2.7671966552734377
                    },
                    "TrialNumber": 5,
                    "ParentBatchNumber": 4
                },
                {
                    "DisplayTarget": "AR",
                    "Video": "violin_video13",
                    "Response": {
                        "MouseResponse": 0,
                        "ResponseTime": 1.69378662109375
                    },
                    "TrialNumber": 6,
                    "ParentBatchNumber": 4
                },
                {
                    "DisplayTarget": "AR",
                    "Video": "violin_video10",
                    "Response": {
                        "MouseResponse": 0,
                        "ResponseTime": 2.1235809326171877
                    },
                    "TrialNumber": 7,
                    "ParentBatchNumber": 4
                },
                {
                    "DisplayTarget": "AR",
                    "Video": "violin_video5",
                    "Response": {
                        "MouseResponse": 1,
                        "ResponseTime": 1.4519500732421876
                    },
                    "TrialNumber": 8,
                    "ParentBatchNumber": 4
                },
                {
                    "DisplayTarget": "AR",
                    "Video": "violin_video4",
                    "Response": {
                        "MouseResponse": 1,
                        "ResponseTime": 1.6088714599609376
                    },
                    "TrialNumber": 9,
                    "ParentBatchNumber": 4
                },
                {
                    "DisplayTarget": "AR",
                    "Video": "violin_video10",
                    "Response": {
                        "MouseResponse": 0,
                        "ResponseTime": 3.2338180541992189
                    },
                    "TrialNumber": 10,
                    "ParentBatchNumber": 4
                },
                {
                    "DisplayTarget": "AR",
                    "Video": "violin_video11",
                    "Response": {
                        "MouseResponse": 0,
                        "ResponseTime": 3.1831207275390627
                    },
                    "TrialNumber": 11,
                    "ParentBatchNumber": 4
                },
                {
                    "DisplayTarget": "AR",
                    "Video": "violin_video7",
                    "Response": {
                        "MouseResponse": 1,
                        "ResponseTime": 2.0680923461914064
                    },
                    "TrialNumber": 12,
                    "ParentBatchNumber": 4
                },
                {
                    "DisplayTarget": "AR",
                    "Video": "violin_video11",
                    "Response": {
                        "MouseResponse": 0,
                        "ResponseTime": 2.628021240234375
                    },
                    "TrialNumber": 13,
                    "ParentBatchNumber": 4
                },
                {
                    "DisplayTarget": "AR",
                    "Video": "violin_video4",
                    "Response": {
                        "MouseResponse": 1,
                        "ResponseTime": 1.4118499755859376
                    },
                    "TrialNumber": 14,
                    "ParentBatchNumber": 4
                },
                {
                    "DisplayTarget": "AR",
                    "Video": "violin_video10",
                    "Response": {
                        "MouseResponse": 0,
                        "ResponseTime": 2.2787322998046877
                    },
                    "TrialNumber": 15,
                    "ParentBatchNumber": 4
                },
                {
                    "DisplayTarget": "AR",
                    "Video": "violin_video14",
                    "Response": {
                        "MouseResponse": 1,
                        "ResponseTime": 1.647918701171875
                    },
                    "TrialNumber": 16,
                    "ParentBatchNumber": 4
                },
                {
                    "DisplayTarget": "AR",
                    "Video": "violin_video12",
                    "Response": {
                        "MouseResponse": 1,
                        "ResponseTime": 2.3372802734375
                    },
                    "TrialNumber": 17,
                    "ParentBatchNumber": 4
                },
                {
                    "DisplayTarget": "AR",
                    "Video": "violin_video5",
                    "Response": {
                        "MouseResponse": 1,
                        "ResponseTime": 2.004302978515625
                    },
                    "TrialNumber": 18,
                    "ParentBatchNumber": 4
                },
                {
                    "DisplayTarget": "AR",
                    "Video": "violin_video12",
                    "Response": {
                        "MouseResponse": 1,
                        "ResponseTime": 3.0277557373046877
                    },
                    "TrialNumber": 19,
                    "ParentBatchNumber": 4
                },
                {
                    "DisplayTarget": "AR",
                    "Video": "violin_video6",
                    "Response": {
                        "MouseResponse": 1,
                        "ResponseTime": 1.41259765625
                    },
                    "TrialNumber": 20,
                    "ParentBatchNumber": 4
                },
                {
                    "DisplayTarget": "AR",
                    "Video": "violin_video6",
                    "Response": {
                        "MouseResponse": 1,
                        "ResponseTime": 2.46075439453125
                    },
                    "TrialNumber": 21,
                    "ParentBatchNumber": 4
                },
                {
                    "DisplayTarget": "AR",
                    "Video": "violin_video13",
                    "Response": {
                        "MouseResponse": 0,
                        "ResponseTime": 2.0662994384765627
                    },
                    "TrialNumber": 22,
                    "ParentBatchNumber": 4
                },
                {
                    "DisplayTarget": "AR",
                    "Video": "violin_video8",
                    "Response": {
                        "MouseResponse": 1,
                        "ResponseTime": 1.6208648681640626
                    },
                    "TrialNumber": 23,
                    "ParentBatchNumber": 4
                },
                {
                    "DisplayTarget": "AR",
                    "Video": "violin_video4",
                    "Response": {
                        "MouseResponse": 0,
                        "ResponseTime": 2.9174957275390627
                    },
                    "TrialNumber": 24,
                    "ParentBatchNumber": 4
                },
                {
                    "DisplayTarget": "AR",
                    "Video": "violin_video11",
                    "Response": {
                        "MouseResponse": 1,
                        "ResponseTime": 1.683135986328125
                    },
                    "TrialNumber": 25,
                    "ParentBatchNumber": 4
                },
                {
                    "DisplayTarget": "AR",
                    "Video": "violin_video6",
                    "Response": {
                        "MouseResponse": 1,
                        "ResponseTime": 1.7547149658203126
                    },
                    "TrialNumber": 26,
                    "ParentBatchNumber": 4
                },
                {
                    "DisplayTarget": "AR",
                    "Video": "violin_video11",
                    "Response": {
                        "MouseResponse": 1,
                        "ResponseTime": 1.6868133544921876
                    },
                    "TrialNumber": 27,
                    "ParentBatchNumber": 4
                }
            ],
            "TargetDisplay": 1,
            "VideoType": 1,
            "IntendedBatchSize": 27
        }
    ]
}