{
    "ParticipantID": "Pilot1",
    "_timeCreated": "13:14:28",
    "_dateCreated": "2022-12-02",
    "NumberOfBatches": 2,
    "SessionBlueprint": {
        "NumberOfBatches": 2,
        "FirstDisplayTarget": 0,
        "FirstVideoType": 0,
        "BatchBlueprints": [
            {
                "NumberOfTrialsInBatch": 27,
                "WhichDisplayTarget": 0,
                "WhichVideoType": 0
            },
            {
                "NumberOfTrialsInBatch": 27,
                "WhichDisplayTarget": 0,
                "WhichVideoType": 1
            }
        ]
    },
    "Batches": [
        {
            "Trials": [
                {
                    "DisplayTarget": "VR",
                    "Video": "beep_video5",
                    "Response": {
                        "MouseResponse": 1,
                        "ResponseTime": 2.6967854499816896
                    },
                    "TrialNumber": 1,
                    "ParentBatchNumber": 1
                },
                {
                    "DisplayTarget": "VR",
                    "Video": "beep_video8",
                    "Response": {
                        "MouseResponse": 1,
                        "ResponseTime": 2.311640739440918
                    },
                    "TrialNumber": 2,
                    "ParentBatchNumber": 1
                },
                {
                    "DisplayTarget": "VR",
                    "Video": "beep_video7",
                    "Response": {
                        "MouseResponse": 0,
                        "ResponseTime": 2.4653987884521486
                    },
                    "TrialNumber": 3,
                    "ParentBatchNumber": 1
                },
                {
                    "DisplayTarget": "VR",
                    "Video": "beep_video13",
                    "Response": {
                        "MouseResponse": 1,
                        "ResponseTime": 4.470005035400391
                    },
                    "TrialNumber": 4,
                    "ParentBatchNumber": 1
                },
                {
                    "DisplayTarget": "VR",
                    "Video": "beep_video12",
                    "Response": {
                        "MouseResponse": 0,
                        "ResponseTime": 2.5270748138427736
                    },
                    "TrialNumber": 5,
                    "ParentBatchNumber": 1
                },
                {
                    "DisplayTarget": "VR",
                    "Video": "beep_video5",
                    "Response": {
                        "MouseResponse": 1,
                        "ResponseTime": 3.049276351928711
                    },
                    "TrialNumber": 6,
                    "ParentBatchNumber": 1
                },
                {
                    "DisplayTarget": "VR",
                    "Video": "beep_video10",
                    "Response": {
                        "MouseResponse": 0,
                        "ResponseTime": 2.1496009826660158
                    },
                    "TrialNumber": 7,
                    "ParentBatchNumber": 1
                },
                {
                    "DisplayTarget": "VR",
                    "Video": "beep_video8",
                    "Response": {
                        "MouseResponse": 0,
                        "ResponseTime": 2.8307952880859377
                    },
                    "TrialNumber": 8,
                    "ParentBatchNumber": 1
                },
                {
                    "DisplayTarget": "VR",
                    "Video": "beep_video10",
                    "Response": {
                        "MouseResponse": 0,
                        "ResponseTime": 3.0693931579589845
                    },
                    "TrialNumber": 9,
                    "ParentBatchNumber": 1
                },
                {
                    "DisplayTarget": "VR",
                    "Video": "beep_video9",
                    "Response": {
                        "MouseResponse": 1,
                        "ResponseTime": 3.7482032775878908
                    },
                    "TrialNumber": 10,
                    "ParentBatchNumber": 1
                },
                {
                    "DisplayTarget": "VR",
                    "Video": "beep_video8",
                    "Response": {
                        "MouseResponse": 1,
                        "ResponseTime": 3.242290496826172
                    },
                    "TrialNumber": 11,
                    "ParentBatchNumber": 1
                },
                {
                    "DisplayTarget": "VR",
                    "Video": "beep_video5",
                    "Response": {
                        "MouseResponse": 1,
                        "ResponseTime": 2.0834503173828127
                    },
                    "TrialNumber": 12,
                    "ParentBatchNumber": 1
                },
                {
                    "DisplayTarget": "VR",
                    "Video": "beep_video9",
                    "Response": {
                        "MouseResponse": 1,
                        "ResponseTime": 3.9480056762695314
                    },
                    "TrialNumber": 13,
                    "ParentBatchNumber": 1
                },
                {
                    "DisplayTarget": "VR",
                    "Video": "beep_video11",
                    "Response": {
                        "MouseResponse": 1,
                        "ResponseTime": 4.433788299560547
                    },
                    "TrialNumber": 14,
                    "ParentBatchNumber": 1
                },
                {
                    "DisplayTarget": "VR",
                    "Video": "beep_video6",
                    "Response": {
                        "MouseResponse": 1,
                        "ResponseTime": 1.9591484069824219
                    },
                    "TrialNumber": 15,
                    "ParentBatchNumber": 1
                },
                {
                    "DisplayTarget": "VR",
                    "Video": "beep_video6",
                    "Response": {
                        "MouseResponse": 1,
                        "ResponseTime": 2.2000656127929689
                    },
                    "TrialNumber": 16,
                    "ParentBatchNumber": 1
                },
                {
                    "DisplayTarget": "VR",
                    "Video": "beep_video13",
                    "Response": {
                        "MouseResponse": 1,
                        "ResponseTime": 3.5862579345703127
                    },
                    "TrialNumber": 17,
                    "ParentBatchNumber": 1
                },
                {
                    "DisplayTarget": "VR",
                    "Video": "beep_video11",
                    "Response": {
                        "MouseResponse": 0,
                        "ResponseTime": 4.779350280761719
                    },
                    "TrialNumber": 18,
                    "ParentBatchNumber": 1
                },
                {
                    "DisplayTarget": "VR",
                    "Video": "beep_video13",
                    "Response": {
                        "MouseResponse": 0,
                        "ResponseTime": 3.0809173583984377
                    },
                    "TrialNumber": 19,
                    "ParentBatchNumber": 1
                },
                {
                    "DisplayTarget": "VR",
                    "Video": "beep_video10",
                    "Response": {
                        "MouseResponse": 0,
                        "ResponseTime": 2.308624267578125
                    },
                    "TrialNumber": 20,
                    "ParentBatchNumber": 1
                },
                {
                    "DisplayTarget": "VR",
                    "Video": "beep_video7",
                    "Response": {
                        "MouseResponse": 0,
                        "ResponseTime": 4.120697021484375
                    },
                    "TrialNumber": 21,
                    "ParentBatchNumber": 1
                },
                {
                    "DisplayTarget": "VR",
                    "Video": "beep_video11",
                    "Response": {
                        "MouseResponse": 0,
                        "ResponseTime": 3.5093154907226564
                    },
                    "TrialNumber": 22,
                    "ParentBatchNumber": 1
                },
                {
                    "DisplayTarget": "VR",
                    "Video": "beep_video7",
                    "Response": {
                        "MouseResponse": 1,
                        "ResponseTime": 1.861328125
                    },
                    "TrialNumber": 23,
                    "ParentBatchNumber": 1
                },
                {
                    "DisplayTarget": "VR",
                    "Video": "beep_video12",
                    "Response": {
                        "MouseResponse": 1,
                        "ResponseTime": 2.0516510009765627
                    },
                    "TrialNumber": 24,
                    "ParentBatchNumber": 1
                },
                {
                    "DisplayTarget": "VR",
                    "Video": "beep_video6",
                    "Response": {
                        "MouseResponse": 1,
                        "ResponseTime": 3.4934005737304689
                    },
                    "TrialNumber": 25,
                    "ParentBatchNumber": 1
                },
                {
                    "DisplayTarget": "VR",
                    "Video": "beep_video9",
                    "Response": {
                        "MouseResponse": 0,
                        "ResponseTime": 2.471282958984375
                    },
                    "TrialNumber": 26,
                    "ParentBatchNumber": 1
                },
                {
                    "DisplayTarget": "VR",
                    "Video": "beep_video12",
                    "Response": {
                        "MouseResponse": 1,
                        "ResponseTime": 2.2651138305664064
                    },
                    "TrialNumber": 27,
                    "ParentBatchNumber": 1
                }
            ],
            "TargetDisplay": 0,
            "VideoType": 0,
            "IntendedBatchSize": 27
        },
        {
            "Trials": [
                {
                    "DisplayTarget": "VR",
                    "Video": "violin_video5",
                    "Response": {
                        "MouseResponse": 1,
                        "ResponseTime": 7.500274658203125
                    },
                    "TrialNumber": 1,
                    "ParentBatchNumber": 2
                },
                {
                    "DisplayTarget": "VR",
                    "Video": "violin_video10",
                    "Response": {
                        "MouseResponse": 0,
                        "ResponseTime": 1.913177490234375
                    },
                    "TrialNumber": 2,
                    "ParentBatchNumber": 2
                },
                {
                    "DisplayTarget": "VR",
                    "Video": "violin_video5",
                    "Response": {
                        "MouseResponse": 1,
                        "ResponseTime": 2.0897369384765627
                    },
                    "TrialNumber": 3,
                    "ParentBatchNumber": 2
                },
                {
                    "DisplayTarget": "VR",
                    "Video": "violin_video13",
                    "Response": {
                        "MouseResponse": 0,
                        "ResponseTime": 2.0294036865234377
                    },
                    "TrialNumber": 4,
                    "ParentBatchNumber": 2
                },
                {
                    "DisplayTarget": "VR",
                    "Video": "violin_video11",
                    "Response": {
                        "MouseResponse": 0,
                        "ResponseTime": 2.07177734375
                    },
                    "TrialNumber": 5,
                    "ParentBatchNumber": 2
                },
                {
                    "DisplayTarget": "VR",
                    "Video": "violin_video6",
                    "Response": {
                        "MouseResponse": 1,
                        "ResponseTime": 1.784759521484375
                    },
                    "TrialNumber": 6,
                    "ParentBatchNumber": 2
                },
                {
                    "DisplayTarget": "VR",
                    "Video": "violin_video11",
                    "Response": {
                        "MouseResponse": 0,
                        "ResponseTime": 3.0985565185546877
                    },
                    "TrialNumber": 7,
                    "ParentBatchNumber": 2
                },
                {
                    "DisplayTarget": "VR",
                    "Video": "violin_video9",
                    "Response": {
                        "MouseResponse": 1,
                        "ResponseTime": 2.224609375
                    },
                    "TrialNumber": 8,
                    "ParentBatchNumber": 2
                },
                {
                    "DisplayTarget": "VR",
                    "Video": "violin_video6",
                    "Response": {
                        "MouseResponse": 1,
                        "ResponseTime": 1.795989990234375
                    },
                    "TrialNumber": 9,
                    "ParentBatchNumber": 2
                },
                {
                    "DisplayTarget": "VR",
                    "Video": "violin_video9",
                    "Response": {
                        "MouseResponse": 0,
                        "ResponseTime": 4.3174285888671879
                    },
                    "TrialNumber": 10,
                    "ParentBatchNumber": 2
                },
                {
                    "DisplayTarget": "VR",
                    "Video": "violin_video12",
                    "Response": {
                        "MouseResponse": 0,
                        "ResponseTime": 2.566436767578125
                    },
                    "TrialNumber": 11,
                    "ParentBatchNumber": 2
                },
                {
                    "DisplayTarget": "VR",
                    "Video": "violin_video5",
                    "Response": {
                        "MouseResponse": 1,
                        "ResponseTime": 1.584014892578125
                    },
                    "TrialNumber": 12,
                    "ParentBatchNumber": 2
                },
                {
                    "DisplayTarget": "VR",
                    "Video": "violin_video10",
                    "Response": {
                        "MouseResponse": 0,
                        "ResponseTime": 2.5160675048828127
                    },
                    "TrialNumber": 13,
                    "ParentBatchNumber": 2
                },
                {
                    "DisplayTarget": "VR",
                    "Video": "violin_video7",
                    "Response": {
                        "MouseResponse": 0,
                        "ResponseTime": 2.9427337646484377
                    },
                    "TrialNumber": 14,
                    "ParentBatchNumber": 2
                },
                {
                    "DisplayTarget": "VR",
                    "Video": "violin_video6",
                    "Response": {
                        "MouseResponse": 0,
                        "ResponseTime": 2.6194915771484377
                    },
                    "TrialNumber": 15,
                    "ParentBatchNumber": 2
                },
                {
                    "DisplayTarget": "VR",
                    "Video": "violin_video9",
                    "Response": {
                        "MouseResponse": 0,
                        "ResponseTime": 2.959503173828125
                    },
                    "TrialNumber": 16,
                    "ParentBatchNumber": 2
                },
                {
                    "DisplayTarget": "VR",
                    "Video": "violin_video8",
                    "Response": {
                        "MouseResponse": 0,
                        "ResponseTime": 3.765625
                    },
                    "TrialNumber": 17,
                    "ParentBatchNumber": 2
                },
                {
                    "DisplayTarget": "VR",
                    "Video": "violin_video7",
                    "Response": {
                        "MouseResponse": 0,
                        "ResponseTime": 2.3096160888671877
                    },
                    "TrialNumber": 18,
                    "ParentBatchNumber": 2
                },
                {
                    "DisplayTarget": "VR",
                    "Video": "violin_video8",
                    "Response": {
                        "MouseResponse": 0,
                        "ResponseTime": 2.0996246337890627
                    },
                    "TrialNumber": 19,
                    "ParentBatchNumber": 2
                },
                {
                    "DisplayTarget": "VR",
                    "Video": "violin_video7",
                    "Response": {
                        "MouseResponse": 0,
                        "ResponseTime": 3.22430419921875
                    },
                    "TrialNumber": 20,
                    "ParentBatchNumber": 2
                },
                {
                    "DisplayTarget": "VR",
                    "Video": "violin_video8",
                    "Response": {
                        "MouseResponse": 0,
                        "ResponseTime": 3.4962921142578127
                    },
                    "TrialNumber": 21,
                    "ParentBatchNumber": 2
                },
                {
                    "DisplayTarget": "VR",
                    "Video": "violin_video12",
                    "Response": {
                        "MouseResponse": 1,
                        "ResponseTime": 4.1961822509765629
                    },
                    "TrialNumber": 22,
                    "ParentBatchNumber": 2
                },
                {
                    "DisplayTarget": "VR",
                    "Video": "violin_video13",
                    "Response": {
                        "MouseResponse": 1,
                        "ResponseTime": 2.0683746337890627
                    },
                    "TrialNumber": 23,
                    "ParentBatchNumber": 2
                },
                {
                    "DisplayTarget": "VR",
                    "Video": "violin_video12",
                    "Response": {
                        "MouseResponse": 1,
                        "ResponseTime": 3.2475738525390627
                    },
                    "TrialNumber": 24,
                    "ParentBatchNumber": 2
                },
                {
                    "DisplayTarget": "VR",
                    "Video": "violin_video10",
                    "Response": {
                        "MouseResponse": 0,
                        "ResponseTime": 1.8660888671875
                    },
                    "TrialNumber": 25,
                    "ParentBatchNumber": 2
                },
                {
                    "DisplayTarget": "VR",
                    "Video": "violin_video11",
                    "Response": {
                        "MouseResponse": 1,
                        "ResponseTime": 2.5175628662109377
                    },
                    "TrialNumber": 26,
                    "ParentBatchNumber": 2
                },
                {
                    "DisplayTarget": "VR",
                    "Video": "violin_video13",
                    "Response": {
                        "MouseResponse": 0,
                        "ResponseTime": 2.6913299560546877
                    },
                    "TrialNumber": 27,
                    "ParentBatchNumber": 2
                }
            ],
            "TargetDisplay": 0,
            "VideoType": 1,
            "IntendedBatchSize": 27
        }
    ]
}