{
    "ParticipantID": "Pilot9",
    "_timeCreated": "18:08:50",
    "_dateCreated": "2022-12-02",
    "NumberOfBatches": 4,
    "SessionBlueprint": {
        "NumberOfBatches": 4,
        "FirstDisplayTarget": 1,
        "FirstVideoType": 0,
        "BatchBlueprints": [
            {
                "NumberOfTrialsInBatch": 28,
                "WhichDisplayTarget": 1,
                "WhichVideoType": 0
            },
            {
                "NumberOfTrialsInBatch": 28,
                "WhichDisplayTarget": 1,
                "WhichVideoType": 1
            },
            {
                "NumberOfTrialsInBatch": 27,
                "WhichDisplayTarget": 1,
                "WhichVideoType": 0
            },
            {
                "NumberOfTrialsInBatch": 27,
                "WhichDisplayTarget": 1,
                "WhichVideoType": 1
            }
        ]
    },
    "Batches": [
        {
            "Trials": [
                {
                    "DisplayTarget": "AR",
                    "Video": "beep_video8",
                    "Response": {
                        "MouseResponse": 0,
                        "ResponseTime": 2.6245222091674806
                    },
                    "TrialNumber": 1,
                    "ParentBatchNumber": 1
                },
                {
                    "DisplayTarget": "AR",
                    "Video": "beep_video10",
                    "Response": {
                        "MouseResponse": 0,
                        "ResponseTime": 2.0268993377685549
                    },
                    "TrialNumber": 2,
                    "ParentBatchNumber": 1
                },
                {
                    "DisplayTarget": "AR",
                    "Video": "beep_video7",
                    "Response": {
                        "MouseResponse": 1,
                        "ResponseTime": 1.6328182220458985
                    },
                    "TrialNumber": 3,
                    "ParentBatchNumber": 1
                },
                {
                    "DisplayTarget": "AR",
                    "Video": "beep_video4",
                    "Response": {
                        "MouseResponse": 1,
                        "ResponseTime": 1.5929145812988282
                    },
                    "TrialNumber": 4,
                    "ParentBatchNumber": 1
                },
                {
                    "DisplayTarget": "AR",
                    "Video": "beep_video13",
                    "Response": {
                        "MouseResponse": 1,
                        "ResponseTime": 1.721038818359375
                    },
                    "TrialNumber": 5,
                    "ParentBatchNumber": 1
                },
                {
                    "DisplayTarget": "AR",
                    "Video": "beep_video10",
                    "Response": {
                        "MouseResponse": 1,
                        "ResponseTime": 6.497737884521484
                    },
                    "TrialNumber": 6,
                    "ParentBatchNumber": 1
                },
                {
                    "DisplayTarget": "AR",
                    "Video": "beep_video4",
                    "Response": {
                        "MouseResponse": 1,
                        "ResponseTime": 1.9197235107421876
                    },
                    "TrialNumber": 7,
                    "ParentBatchNumber": 1
                },
                {
                    "DisplayTarget": "AR",
                    "Video": "beep_video5",
                    "Response": {
                        "MouseResponse": 1,
                        "ResponseTime": 2.57769775390625
                    },
                    "TrialNumber": 8,
                    "ParentBatchNumber": 1
                },
                {
                    "DisplayTarget": "AR",
                    "Video": "beep_video4",
                    "Response": {
                        "MouseResponse": 1,
                        "ResponseTime": 2.0453948974609377
                    },
                    "TrialNumber": 9,
                    "ParentBatchNumber": 1
                },
                {
                    "DisplayTarget": "AR",
                    "Video": "beep_video13",
                    "Response": {
                        "MouseResponse": 1,
                        "ResponseTime": 1.7948417663574219
                    },
                    "TrialNumber": 10,
                    "ParentBatchNumber": 1
                },
                {
                    "DisplayTarget": "AR",
                    "Video": "beep_video9",
                    "Response": {
                        "MouseResponse": 0,
                        "ResponseTime": 1.8393669128417969
                    },
                    "TrialNumber": 11,
                    "ParentBatchNumber": 1
                },
                {
                    "DisplayTarget": "AR",
                    "Video": "beep_video14",
                    "Response": {
                        "MouseResponse": 0,
                        "ResponseTime": 2.3716964721679689
                    },
                    "TrialNumber": 12,
                    "ParentBatchNumber": 1
                },
                {
                    "DisplayTarget": "AR",
                    "Video": "beep_video10",
                    "Response": {
                        "MouseResponse": 0,
                        "ResponseTime": 1.8766555786132813
                    },
                    "TrialNumber": 13,
                    "ParentBatchNumber": 1
                },
                {
                    "DisplayTarget": "AR",
                    "Video": "beep_video12",
                    "Response": {
                        "MouseResponse": 0,
                        "ResponseTime": 1.8810958862304688
                    },
                    "TrialNumber": 14,
                    "ParentBatchNumber": 1
                },
                {
                    "DisplayTarget": "AR",
                    "Video": "beep_video11",
                    "Response": {
                        "MouseResponse": 1,
                        "ResponseTime": 2.0133056640625
                    },
                    "TrialNumber": 15,
                    "ParentBatchNumber": 1
                },
                {
                    "DisplayTarget": "AR",
                    "Video": "beep_video12",
                    "Response": {
                        "MouseResponse": 0,
                        "ResponseTime": 2.9349136352539064
                    },
                    "TrialNumber": 16,
                    "ParentBatchNumber": 1
                },
                {
                    "DisplayTarget": "AR",
                    "Video": "beep_video8",
                    "Response": {
                        "MouseResponse": 1,
                        "ResponseTime": 2.9722061157226564
                    },
                    "TrialNumber": 17,
                    "ParentBatchNumber": 1
                },
                {
                    "DisplayTarget": "AR",
                    "Video": "beep_video12",
                    "Response": {
                        "MouseResponse": 0,
                        "ResponseTime": 2.566009521484375
                    },
                    "TrialNumber": 18,
                    "ParentBatchNumber": 1
                },
                {
                    "DisplayTarget": "AR",
                    "Video": "beep_video9",
                    "Response": {
                        "MouseResponse": 0,
                        "ResponseTime": 2.3936004638671877
                    },
                    "TrialNumber": 19,
                    "ParentBatchNumber": 1
                },
                {
                    "DisplayTarget": "AR",
                    "Video": "beep_video14",
                    "Response": {
                        "MouseResponse": 1,
                        "ResponseTime": 1.8037643432617188
                    },
                    "TrialNumber": 20,
                    "ParentBatchNumber": 1
                },
                {
                    "DisplayTarget": "AR",
                    "Video": "beep_video7",
                    "Response": {
                        "MouseResponse": 1,
                        "ResponseTime": 1.8592681884765626
                    },
                    "TrialNumber": 21,
                    "ParentBatchNumber": 1
                },
                {
                    "DisplayTarget": "AR",
                    "Video": "beep_video6",
                    "Response": {
                        "MouseResponse": 1,
                        "ResponseTime": 2.4733810424804689
                    },
                    "TrialNumber": 22,
                    "ParentBatchNumber": 1
                },
                {
                    "DisplayTarget": "AR",
                    "Video": "beep_video14",
                    "Response": {
                        "MouseResponse": 0,
                        "ResponseTime": 3.3442306518554689
                    },
                    "TrialNumber": 23,
                    "ParentBatchNumber": 1
                },
                {
                    "DisplayTarget": "AR",
                    "Video": "beep_video6",
                    "Response": {
                        "MouseResponse": 1,
                        "ResponseTime": 1.758575439453125
                    },
                    "TrialNumber": 24,
                    "ParentBatchNumber": 1
                },
                {
                    "DisplayTarget": "AR",
                    "Video": "beep_video14",
                    "Response": {
                        "MouseResponse": 1,
                        "ResponseTime": 2.0821914672851564
                    },
                    "TrialNumber": 25,
                    "ParentBatchNumber": 1
                },
                {
                    "DisplayTarget": "AR",
                    "Video": "beep_video9",
                    "Response": {
                        "MouseResponse": 0,
                        "ResponseTime": 2.2959976196289064
                    },
                    "TrialNumber": 26,
                    "ParentBatchNumber": 1
                },
                {
                    "DisplayTarget": "AR",
                    "Video": "beep_video4",
                    "Response": {
                        "MouseResponse": 1,
                        "ResponseTime": 1.6248092651367188
                    },
                    "TrialNumber": 27,
                    "ParentBatchNumber": 1
                },
                {
                    "DisplayTarget": "AR",
                    "Video": "beep_video7",
                    "Response": {
                        "MouseResponse": 1,
                        "ResponseTime": 5.026588439941406
                    },
                    "TrialNumber": 28,
                    "ParentBatchNumber": 1
                }
            ],
            "TargetDisplay": 1,
            "VideoType": 0,
            "IntendedBatchSize": 28
        },
        {
            "Trials": [
                {
                    "DisplayTarget": "AR",
                    "Video": "violin_video6",
                    "Response": {
                        "MouseResponse": 0,
                        "ResponseTime": 5.196022033691406
                    },
                    "TrialNumber": 1,
                    "ParentBatchNumber": 2
                },
                {
                    "DisplayTarget": "AR",
                    "Video": "violin_video14",
                    "Response": {
                        "MouseResponse": 0,
                        "ResponseTime": 2.2684173583984377
                    },
                    "TrialNumber": 2,
                    "ParentBatchNumber": 2
                },
                {
                    "DisplayTarget": "AR",
                    "Video": "violin_video4",
                    "Response": {
                        "MouseResponse": 1,
                        "ResponseTime": 1.655426025390625
                    },
                    "TrialNumber": 3,
                    "ParentBatchNumber": 2
                },
                {
                    "DisplayTarget": "AR",
                    "Video": "violin_video7",
                    "Response": {
                        "MouseResponse": 0,
                        "ResponseTime": 3.8034820556640627
                    },
                    "TrialNumber": 4,
                    "ParentBatchNumber": 2
                },
                {
                    "DisplayTarget": "AR",
                    "Video": "violin_video11",
                    "Response": {
                        "MouseResponse": 0,
                        "ResponseTime": 3.9420623779296877
                    },
                    "TrialNumber": 5,
                    "ParentBatchNumber": 2
                },
                {
                    "DisplayTarget": "AR",
                    "Video": "violin_video8",
                    "Response": {
                        "MouseResponse": 0,
                        "ResponseTime": 2.1952362060546877
                    },
                    "TrialNumber": 6,
                    "ParentBatchNumber": 2
                },
                {
                    "DisplayTarget": "AR",
                    "Video": "violin_video5",
                    "Response": {
                        "MouseResponse": 1,
                        "ResponseTime": 1.438751220703125
                    },
                    "TrialNumber": 7,
                    "ParentBatchNumber": 2
                },
                {
                    "DisplayTarget": "AR",
                    "Video": "violin_video5",
                    "Response": {
                        "MouseResponse": 1,
                        "ResponseTime": 1.54425048828125
                    },
                    "TrialNumber": 8,
                    "ParentBatchNumber": 2
                },
                {
                    "DisplayTarget": "AR",
                    "Video": "violin_video9",
                    "Response": {
                        "MouseResponse": 0,
                        "ResponseTime": 2.118316650390625
                    },
                    "TrialNumber": 9,
                    "ParentBatchNumber": 2
                },
                {
                    "DisplayTarget": "AR",
                    "Video": "violin_video10",
                    "Response": {
                        "MouseResponse": 0,
                        "ResponseTime": 2.08856201171875
                    },
                    "TrialNumber": 10,
                    "ParentBatchNumber": 2
                },
                {
                    "DisplayTarget": "AR",
                    "Video": "violin_video13",
                    "Response": {
                        "MouseResponse": 0,
                        "ResponseTime": 2.98004150390625
                    },
                    "TrialNumber": 11,
                    "ParentBatchNumber": 2
                },
                {
                    "DisplayTarget": "AR",
                    "Video": "violin_video7",
                    "Response": {
                        "MouseResponse": 0,
                        "ResponseTime": 3.9483795166015627
                    },
                    "TrialNumber": 12,
                    "ParentBatchNumber": 2
                },
                {
                    "DisplayTarget": "AR",
                    "Video": "violin_video11",
                    "Response": {
                        "MouseResponse": 0,
                        "ResponseTime": 9.975387573242188
                    },
                    "TrialNumber": 13,
                    "ParentBatchNumber": 2
                },
                {
                    "DisplayTarget": "AR",
                    "Video": "violin_video14",
                    "Response": {
                        "MouseResponse": 1,
                        "ResponseTime": 8.817245483398438
                    },
                    "TrialNumber": 14,
                    "ParentBatchNumber": 2
                },
                {
                    "DisplayTarget": "AR",
                    "Video": "violin_video8",
                    "Response": {
                        "MouseResponse": 1,
                        "ResponseTime": 3.99066162109375
                    },
                    "TrialNumber": 15,
                    "ParentBatchNumber": 2
                },
                {
                    "DisplayTarget": "AR",
                    "Video": "violin_video9",
                    "Response": {
                        "MouseResponse": 0,
                        "ResponseTime": 2.28546142578125
                    },
                    "TrialNumber": 16,
                    "ParentBatchNumber": 2
                },
                {
                    "DisplayTarget": "AR",
                    "Video": "violin_video10",
                    "Response": {
                        "MouseResponse": 0,
                        "ResponseTime": 1.7911834716796876
                    },
                    "TrialNumber": 17,
                    "ParentBatchNumber": 2
                },
                {
                    "DisplayTarget": "AR",
                    "Video": "violin_video8",
                    "Response": {
                        "MouseResponse": 1,
                        "ResponseTime": 2.846588134765625
                    },
                    "TrialNumber": 18,
                    "ParentBatchNumber": 2
                },
                {
                    "DisplayTarget": "AR",
                    "Video": "violin_video6",
                    "Response": {
                        "MouseResponse": 1,
                        "ResponseTime": 1.7729339599609376
                    },
                    "TrialNumber": 19,
                    "ParentBatchNumber": 2
                },
                {
                    "DisplayTarget": "AR",
                    "Video": "violin_video5",
                    "Response": {
                        "MouseResponse": 1,
                        "ResponseTime": 1.6885986328125
                    },
                    "TrialNumber": 20,
                    "ParentBatchNumber": 2
                },
                {
                    "DisplayTarget": "AR",
                    "Video": "violin_video4",
                    "Response": {
                        "MouseResponse": 0,
                        "ResponseTime": 2.5469512939453127
                    },
                    "TrialNumber": 21,
                    "ParentBatchNumber": 2
                },
                {
                    "DisplayTarget": "AR",
                    "Video": "violin_video13",
                    "Response": {
                        "MouseResponse": 1,
                        "ResponseTime": 2.639312744140625
                    },
                    "TrialNumber": 22,
                    "ParentBatchNumber": 2
                },
                {
                    "DisplayTarget": "AR",
                    "Video": "violin_video13",
                    "Response": {
                        "MouseResponse": 1,
                        "ResponseTime": 3.2241058349609377
                    },
                    "TrialNumber": 23,
                    "ParentBatchNumber": 2
                },
                {
                    "DisplayTarget": "AR",
                    "Video": "violin_video10",
                    "Response": {
                        "MouseResponse": 0,
                        "ResponseTime": 1.6768951416015626
                    },
                    "TrialNumber": 24,
                    "ParentBatchNumber": 2
                },
                {
                    "DisplayTarget": "AR",
                    "Video": "violin_video12",
                    "Response": {
                        "MouseResponse": 0,
                        "ResponseTime": 2.1196136474609377
                    },
                    "TrialNumber": 25,
                    "ParentBatchNumber": 2
                },
                {
                    "DisplayTarget": "AR",
                    "Video": "violin_video4",
                    "Response": {
                        "MouseResponse": 1,
                        "ResponseTime": 1.5886383056640626
                    },
                    "TrialNumber": 26,
                    "ParentBatchNumber": 2
                },
                {
                    "DisplayTarget": "AR",
                    "Video": "violin_video4",
                    "Response": {
                        "MouseResponse": 1,
                        "ResponseTime": 2.722442626953125
                    },
                    "TrialNumber": 27,
                    "ParentBatchNumber": 2
                },
                {
                    "DisplayTarget": "AR",
                    "Video": "violin_video12",
                    "Response": {
                        "MouseResponse": 0,
                        "ResponseTime": 2.5908050537109377
                    },
                    "TrialNumber": 28,
                    "ParentBatchNumber": 2
                }
            ],
            "TargetDisplay": 1,
            "VideoType": 1,
            "IntendedBatchSize": 28
        },
        {
            "Trials": [
                {
                    "DisplayTarget": "AR",
                    "Video": "beep_video12",
                    "Response": {
                        "MouseResponse": 0,
                        "ResponseTime": 2.32135009765625
                    },
                    "TrialNumber": 1,
                    "ParentBatchNumber": 3
                },
                {
                    "DisplayTarget": "AR",
                    "Video": "beep_video13",
                    "Response": {
                        "MouseResponse": 1,
                        "ResponseTime": 1.7840728759765626
                    },
                    "TrialNumber": 2,
                    "ParentBatchNumber": 3
                },
                {
                    "DisplayTarget": "AR",
                    "Video": "beep_video9",
                    "Response": {
                        "MouseResponse": 1,
                        "ResponseTime": 3.0871124267578127
                    },
                    "TrialNumber": 3,
                    "ParentBatchNumber": 3
                },
                {
                    "DisplayTarget": "AR",
                    "Video": "beep_video10",
                    "Response": {
                        "MouseResponse": 0,
                        "ResponseTime": 2.19287109375
                    },
                    "TrialNumber": 4,
                    "ParentBatchNumber": 3
                },
                {
                    "DisplayTarget": "AR",
                    "Video": "beep_video9",
                    "Response": {
                        "MouseResponse": 0,
                        "ResponseTime": 1.894927978515625
                    },
                    "TrialNumber": 5,
                    "ParentBatchNumber": 3
                },
                {
                    "DisplayTarget": "AR",
                    "Video": "beep_video8",
                    "Response": {
                        "MouseResponse": 1,
                        "ResponseTime": 2.146270751953125
                    },
                    "TrialNumber": 6,
                    "ParentBatchNumber": 3
                },
                {
                    "DisplayTarget": "AR",
                    "Video": "beep_video11",
                    "Response": {
                        "MouseResponse": 0,
                        "ResponseTime": 2.064697265625
                    },
                    "TrialNumber": 7,
                    "ParentBatchNumber": 3
                },
                {
                    "DisplayTarget": "AR",
                    "Video": "beep_video5",
                    "Response": {
                        "MouseResponse": 1,
                        "ResponseTime": 1.5916748046875
                    },
                    "TrialNumber": 8,
                    "ParentBatchNumber": 3
                },
                {
                    "DisplayTarget": "AR",
                    "Video": "beep_video5",
                    "Response": {
                        "MouseResponse": 1,
                        "ResponseTime": 2.146270751953125
                    },
                    "TrialNumber": 9,
                    "ParentBatchNumber": 3
                },
                {
                    "DisplayTarget": "AR",
                    "Video": "beep_video11",
                    "Response": {
                        "MouseResponse": 1,
                        "ResponseTime": 2.324066162109375
                    },
                    "TrialNumber": 10,
                    "ParentBatchNumber": 3
                },
                {
                    "DisplayTarget": "AR",
                    "Video": "beep_video6",
                    "Response": {
                        "MouseResponse": 1,
                        "ResponseTime": 1.685943603515625
                    },
                    "TrialNumber": 11,
                    "ParentBatchNumber": 3
                },
                {
                    "DisplayTarget": "AR",
                    "Video": "beep_video6",
                    "Response": {
                        "MouseResponse": 1,
                        "ResponseTime": 2.248077392578125
                    },
                    "TrialNumber": 12,
                    "ParentBatchNumber": 3
                },
                {
                    "DisplayTarget": "AR",
                    "Video": "beep_video4",
                    "Response": {
                        "MouseResponse": 1,
                        "ResponseTime": 4.82073974609375
                    },
                    "TrialNumber": 13,
                    "ParentBatchNumber": 3
                },
                {
                    "DisplayTarget": "AR",
                    "Video": "beep_video7",
                    "Response": {
                        "MouseResponse": 0,
                        "ResponseTime": 1.86602783203125
                    },
                    "TrialNumber": 14,
                    "ParentBatchNumber": 3
                },
                {
                    "DisplayTarget": "AR",
                    "Video": "beep_video14",
                    "Response": {
                        "MouseResponse": 1,
                        "ResponseTime": 1.943939208984375
                    },
                    "TrialNumber": 15,
                    "ParentBatchNumber": 3
                },
                {
                    "DisplayTarget": "AR",
                    "Video": "beep_video8",
                    "Response": {
                        "MouseResponse": 0,
                        "ResponseTime": 2.104705810546875
                    },
                    "TrialNumber": 16,
                    "ParentBatchNumber": 3
                },
                {
                    "DisplayTarget": "AR",
                    "Video": "beep_video11",
                    "Response": {
                        "MouseResponse": 1,
                        "ResponseTime": 3.385040283203125
                    },
                    "TrialNumber": 17,
                    "ParentBatchNumber": 3
                },
                {
                    "DisplayTarget": "AR",
                    "Video": "beep_video5",
                    "Response": {
                        "MouseResponse": 0,
                        "ResponseTime": 1.79833984375
                    },
                    "TrialNumber": 18,
                    "ParentBatchNumber": 3
                },
                {
                    "DisplayTarget": "AR",
                    "Video": "beep_video7",
                    "Response": {
                        "MouseResponse": 0,
                        "ResponseTime": 1.981842041015625
                    },
                    "TrialNumber": 19,
                    "ParentBatchNumber": 3
                },
                {
                    "DisplayTarget": "AR",
                    "Video": "beep_video6",
                    "Response": {
                        "MouseResponse": 0,
                        "ResponseTime": 1.837127685546875
                    },
                    "TrialNumber": 20,
                    "ParentBatchNumber": 3
                },
                {
                    "DisplayTarget": "AR",
                    "Video": "beep_video8",
                    "Response": {
                        "MouseResponse": 1,
                        "ResponseTime": 2.825653076171875
                    },
                    "TrialNumber": 21,
                    "ParentBatchNumber": 3
                },
                {
                    "DisplayTarget": "AR",
                    "Video": "beep_video13",
                    "Response": {
                        "MouseResponse": 0,
                        "ResponseTime": 2.08660888671875
                    },
                    "TrialNumber": 22,
                    "ParentBatchNumber": 3
                },
                {
                    "DisplayTarget": "AR",
                    "Video": "beep_video11",
                    "Response": {
                        "MouseResponse": 0,
                        "ResponseTime": 1.9981689453125
                    },
                    "TrialNumber": 23,
                    "ParentBatchNumber": 3
                },
                {
                    "DisplayTarget": "AR",
                    "Video": "beep_video5",
                    "Response": {
                        "MouseResponse": 1,
                        "ResponseTime": 1.6060791015625
                    },
                    "TrialNumber": 24,
                    "ParentBatchNumber": 3
                },
                {
                    "DisplayTarget": "AR",
                    "Video": "beep_video13",
                    "Response": {
                        "MouseResponse": 1,
                        "ResponseTime": 2.2086181640625
                    },
                    "TrialNumber": 25,
                    "ParentBatchNumber": 3
                },
                {
                    "DisplayTarget": "AR",
                    "Video": "beep_video10",
                    "Response": {
                        "MouseResponse": 0,
                        "ResponseTime": 1.8486328125
                    },
                    "TrialNumber": 26,
                    "ParentBatchNumber": 3
                },
                {
                    "DisplayTarget": "AR",
                    "Video": "beep_video12",
                    "Response": {
                        "MouseResponse": 0,
                        "ResponseTime": 1.97027587890625
                    },
                    "TrialNumber": 27,
                    "ParentBatchNumber": 3
                }
            ],
            "TargetDisplay": 1,
            "VideoType": 0,
            "IntendedBatchSize": 27
        },
        {
            "Trials": [
                {
                    "DisplayTarget": "AR",
                    "Video": "violin_video6",
                    "Response": {
                        "MouseResponse": 0,
                        "ResponseTime": 2.768707275390625
                    },
                    "TrialNumber": 1,
                    "ParentBatchNumber": 4
                },
                {
                    "DisplayTarget": "AR",
                    "Video": "violin_video14",
                    "Response": {
                        "MouseResponse": 1,
                        "ResponseTime": 1.6968994140625
                    },
                    "TrialNumber": 2,
                    "ParentBatchNumber": 4
                },
                {
                    "DisplayTarget": "AR",
                    "Video": "violin_video11",
                    "Response": {
                        "MouseResponse": 0,
                        "ResponseTime": 2.22637939453125
                    },
                    "TrialNumber": 3,
                    "ParentBatchNumber": 4
                },
                {
                    "DisplayTarget": "AR",
                    "Video": "violin_video12",
                    "Response": {
                        "MouseResponse": 0,
                        "ResponseTime": 2.91302490234375
                    },
                    "TrialNumber": 4,
                    "ParentBatchNumber": 4
                },
                {
                    "DisplayTarget": "AR",
                    "Video": "violin_video9",
                    "Response": {
                        "MouseResponse": 0,
                        "ResponseTime": 1.951446533203125
                    },
                    "TrialNumber": 5,
                    "ParentBatchNumber": 4
                },
                {
                    "DisplayTarget": "AR",
                    "Video": "violin_video13",
                    "Response": {
                        "MouseResponse": 0,
                        "ResponseTime": 3.210601806640625
                    },
                    "TrialNumber": 6,
                    "ParentBatchNumber": 4
                },
                {
                    "DisplayTarget": "AR",
                    "Video": "violin_video11",
                    "Response": {
                        "MouseResponse": 0,
                        "ResponseTime": 1.8670654296875
                    },
                    "TrialNumber": 7,
                    "ParentBatchNumber": 4
                },
                {
                    "DisplayTarget": "AR",
                    "Video": "violin_video11",
                    "Response": {
                        "MouseResponse": 0,
                        "ResponseTime": 1.852386474609375
                    },
                    "TrialNumber": 8,
                    "ParentBatchNumber": 4
                },
                {
                    "DisplayTarget": "AR",
                    "Video": "violin_video8",
                    "Response": {
                        "MouseResponse": 0,
                        "ResponseTime": 2.383880615234375
                    },
                    "TrialNumber": 9,
                    "ParentBatchNumber": 4
                },
                {
                    "DisplayTarget": "AR",
                    "Video": "violin_video7",
                    "Response": {
                        "MouseResponse": 0,
                        "ResponseTime": 2.205047607421875
                    },
                    "TrialNumber": 10,
                    "ParentBatchNumber": 4
                },
                {
                    "DisplayTarget": "AR",
                    "Video": "violin_video7",
                    "Response": {
                        "MouseResponse": 0,
                        "ResponseTime": 2.1141357421875
                    },
                    "TrialNumber": 11,
                    "ParentBatchNumber": 4
                },
                {
                    "DisplayTarget": "AR",
                    "Video": "violin_video12",
                    "Response": {
                        "MouseResponse": 0,
                        "ResponseTime": 3.300201416015625
                    },
                    "TrialNumber": 12,
                    "ParentBatchNumber": 4
                },
                {
                    "DisplayTarget": "AR",
                    "Video": "violin_video9",
                    "Response": {
                        "MouseResponse": 0,
                        "ResponseTime": 1.836700439453125
                    },
                    "TrialNumber": 13,
                    "ParentBatchNumber": 4
                },
                {
                    "DisplayTarget": "AR",
                    "Video": "violin_video5",
                    "Response": {
                        "MouseResponse": 0,
                        "ResponseTime": 2.0657958984375
                    },
                    "TrialNumber": 14,
                    "ParentBatchNumber": 4
                },
                {
                    "DisplayTarget": "AR",
                    "Video": "violin_video10",
                    "Response": {
                        "MouseResponse": 0,
                        "ResponseTime": 2.608795166015625
                    },
                    "TrialNumber": 15,
                    "ParentBatchNumber": 4
                },
                {
                    "DisplayTarget": "AR",
                    "Video": "violin_video5",
                    "Response": {
                        "MouseResponse": 1,
                        "ResponseTime": 1.981536865234375
                    },
                    "TrialNumber": 16,
                    "ParentBatchNumber": 4
                },
                {
                    "DisplayTarget": "AR",
                    "Video": "violin_video14",
                    "Response": {
                        "MouseResponse": 1,
                        "ResponseTime": 2.136627197265625
                    },
                    "TrialNumber": 17,
                    "ParentBatchNumber": 4
                },
                {
                    "DisplayTarget": "AR",
                    "Video": "violin_video4",
                    "Response": {
                        "MouseResponse": 1,
                        "ResponseTime": 1.695037841796875
                    },
                    "TrialNumber": 18,
                    "ParentBatchNumber": 4
                },
                {
                    "DisplayTarget": "AR",
                    "Video": "violin_video6",
                    "Response": {
                        "MouseResponse": 1,
                        "ResponseTime": 2.10345458984375
                    },
                    "TrialNumber": 19,
                    "ParentBatchNumber": 4
                },
                {
                    "DisplayTarget": "AR",
                    "Video": "violin_video12",
                    "Response": {
                        "MouseResponse": 0,
                        "ResponseTime": 4.10430908203125
                    },
                    "TrialNumber": 20,
                    "ParentBatchNumber": 4
                },
                {
                    "DisplayTarget": "AR",
                    "Video": "violin_video8",
                    "Response": {
                        "MouseResponse": 0,
                        "ResponseTime": 1.884735107421875
                    },
                    "TrialNumber": 21,
                    "ParentBatchNumber": 4
                },
                {
                    "DisplayTarget": "AR",
                    "Video": "violin_video9",
                    "Response": {
                        "MouseResponse": 0,
                        "ResponseTime": 1.76446533203125
                    },
                    "TrialNumber": 22,
                    "ParentBatchNumber": 4
                },
                {
                    "DisplayTarget": "AR",
                    "Video": "violin_video7",
                    "Response": {
                        "MouseResponse": 1,
                        "ResponseTime": 4.2474365234375
                    },
                    "TrialNumber": 23,
                    "ParentBatchNumber": 4
                },
                {
                    "DisplayTarget": "AR",
                    "Video": "violin_video10",
                    "Response": {
                        "MouseResponse": 0,
                        "ResponseTime": 4.3306884765625
                    },
                    "TrialNumber": 24,
                    "ParentBatchNumber": 4
                },
                {
                    "DisplayTarget": "AR",
                    "Video": "violin_video6",
                    "Response": {
                        "MouseResponse": 0,
                        "ResponseTime": 6.208160400390625
                    },
                    "TrialNumber": 25,
                    "ParentBatchNumber": 4
                },
                {
                    "DisplayTarget": "AR",
                    "Video": "violin_video13",
                    "Response": {
                        "MouseResponse": 0,
                        "ResponseTime": 4.4810791015625
                    },
                    "TrialNumber": 26,
                    "ParentBatchNumber": 4
                },
                {
                    "DisplayTarget": "AR",
                    "Video": "violin_video14",
                    "Response": {
                        "MouseResponse": 0,
                        "ResponseTime": 4.40972900390625
                    },
                    "TrialNumber": 27,
                    "ParentBatchNumber": 4
                }
            ],
            "TargetDisplay": 1,
            "VideoType": 1,
            "IntendedBatchSize": 27
        }
    ]
}