{
    "ParticipantID": "Pilot7",
    "_timeCreated": "16:03:08",
    "_dateCreated": "2022-12-02",
    "NumberOfBatches": 4,
    "SessionBlueprint": {
        "NumberOfBatches": 4,
        "FirstDisplayTarget": 0,
        "FirstVideoType": 0,
        "BatchBlueprints": [
            {
                "NumberOfTrialsInBatch": 23,
                "WhichDisplayTarget": 0,
                "WhichVideoType": 0
            },
            {
                "NumberOfTrialsInBatch": 23,
                "WhichDisplayTarget": 0,
                "WhichVideoType": 1
            },
            {
                "NumberOfTrialsInBatch": 22,
                "WhichDisplayTarget": 0,
                "WhichVideoType": 0
            },
            {
                "NumberOfTrialsInBatch": 22,
                "WhichDisplayTarget": 0,
                "WhichVideoType": 1
            }
        ]
    },
    "Batches": [
        {
            "Trials": [
                {
                    "DisplayTarget": "VR",
                    "Video": "beep_video13",
                    "Response": {
                        "MouseResponse": 1,
                        "ResponseTime": 9.213903427124024
                    },
                    "TrialNumber": 1,
                    "ParentBatchNumber": 1
                },
                {
                    "DisplayTarget": "VR",
                    "Video": "beep_video6",
                    "Response": {
                        "MouseResponse": 1,
                        "ResponseTime": 2.855508804321289
                    },
                    "TrialNumber": 2,
                    "ParentBatchNumber": 1
                },
                {
                    "DisplayTarget": "VR",
                    "Video": "beep_video12",
                    "Response": {
                        "MouseResponse": 1,
                        "ResponseTime": 3.229278564453125
                    },
                    "TrialNumber": 3,
                    "ParentBatchNumber": 1
                },
                {
                    "DisplayTarget": "VR",
                    "Video": "beep_video11",
                    "Response": {
                        "MouseResponse": 0,
                        "ResponseTime": 2.2270030975341799
                    },
                    "TrialNumber": 4,
                    "ParentBatchNumber": 1
                },
                {
                    "DisplayTarget": "VR",
                    "Video": "beep_video9",
                    "Response": {
                        "MouseResponse": 0,
                        "ResponseTime": 1.7161712646484376
                    },
                    "TrialNumber": 5,
                    "ParentBatchNumber": 1
                },
                {
                    "DisplayTarget": "VR",
                    "Video": "beep_video9",
                    "Response": {
                        "MouseResponse": 0,
                        "ResponseTime": 8.303276062011719
                    },
                    "TrialNumber": 6,
                    "ParentBatchNumber": 1
                },
                {
                    "DisplayTarget": "VR",
                    "Video": "beep_video8",
                    "Response": {
                        "MouseResponse": 0,
                        "ResponseTime": 5.630901336669922
                    },
                    "TrialNumber": 7,
                    "ParentBatchNumber": 1
                },
                {
                    "DisplayTarget": "VR",
                    "Video": "beep_video13",
                    "Response": {
                        "MouseResponse": 0,
                        "ResponseTime": 1.6560935974121094
                    },
                    "TrialNumber": 8,
                    "ParentBatchNumber": 1
                },
                {
                    "DisplayTarget": "VR",
                    "Video": "beep_video11",
                    "Response": {
                        "MouseResponse": 0,
                        "ResponseTime": 1.6191635131835938
                    },
                    "TrialNumber": 9,
                    "ParentBatchNumber": 1
                },
                {
                    "DisplayTarget": "VR",
                    "Video": "beep_video5",
                    "Response": {
                        "MouseResponse": 0,
                        "ResponseTime": 12.270763397216797
                    },
                    "TrialNumber": 10,
                    "ParentBatchNumber": 1
                },
                {
                    "DisplayTarget": "VR",
                    "Video": "beep_video8",
                    "Response": {
                        "MouseResponse": 1,
                        "ResponseTime": 3.0730361938476564
                    },
                    "TrialNumber": 11,
                    "ParentBatchNumber": 1
                },
                {
                    "DisplayTarget": "VR",
                    "Video": "beep_video5",
                    "Response": {
                        "MouseResponse": 0,
                        "ResponseTime": 2.1168289184570314
                    },
                    "TrialNumber": 12,
                    "ParentBatchNumber": 1
                },
                {
                    "DisplayTarget": "VR",
                    "Video": "beep_video7",
                    "Response": {
                        "MouseResponse": 0,
                        "ResponseTime": 1.7693634033203126
                    },
                    "TrialNumber": 13,
                    "ParentBatchNumber": 1
                },
                {
                    "DisplayTarget": "VR",
                    "Video": "beep_video10",
                    "Response": {
                        "MouseResponse": 0,
                        "ResponseTime": 1.7620391845703126
                    },
                    "TrialNumber": 14,
                    "ParentBatchNumber": 1
                },
                {
                    "DisplayTarget": "VR",
                    "Video": "beep_video11",
                    "Response": {
                        "MouseResponse": 1,
                        "ResponseTime": 2.8423309326171877
                    },
                    "TrialNumber": 15,
                    "ParentBatchNumber": 1
                },
                {
                    "DisplayTarget": "VR",
                    "Video": "beep_video9",
                    "Response": {
                        "MouseResponse": 0,
                        "ResponseTime": 1.8841400146484376
                    },
                    "TrialNumber": 16,
                    "ParentBatchNumber": 1
                },
                {
                    "DisplayTarget": "VR",
                    "Video": "beep_video8",
                    "Response": {
                        "MouseResponse": 0,
                        "ResponseTime": 1.7306060791015626
                    },
                    "TrialNumber": 17,
                    "ParentBatchNumber": 1
                },
                {
                    "DisplayTarget": "VR",
                    "Video": "beep_video8",
                    "Response": {
                        "MouseResponse": 0,
                        "ResponseTime": 6.5529632568359379
                    },
                    "TrialNumber": 18,
                    "ParentBatchNumber": 1
                },
                {
                    "DisplayTarget": "VR",
                    "Video": "beep_video10",
                    "Response": {
                        "MouseResponse": 1,
                        "ResponseTime": 2.2556686401367189
                    },
                    "TrialNumber": 19,
                    "ParentBatchNumber": 1
                },
                {
                    "DisplayTarget": "VR",
                    "Video": "beep_video9",
                    "Response": {
                        "MouseResponse": 1,
                        "ResponseTime": 2.56134033203125
                    },
                    "TrialNumber": 20,
                    "ParentBatchNumber": 1
                },
                {
                    "DisplayTarget": "VR",
                    "Video": "beep_video11",
                    "Response": {
                        "MouseResponse": 1,
                        "ResponseTime": 2.5692672729492189
                    },
                    "TrialNumber": 21,
                    "ParentBatchNumber": 1
                },
                {
                    "DisplayTarget": "VR",
                    "Video": "beep_video7",
                    "Response": {
                        "MouseResponse": 1,
                        "ResponseTime": 1.7404861450195313
                    },
                    "TrialNumber": 22,
                    "ParentBatchNumber": 1
                },
                {
                    "DisplayTarget": "VR",
                    "Video": "beep_video8",
                    "Response": {
                        "MouseResponse": 1,
                        "ResponseTime": 1.8288955688476563
                    },
                    "TrialNumber": 23,
                    "ParentBatchNumber": 1
                }
            ],
            "TargetDisplay": 0,
            "VideoType": 0,
            "IntendedBatchSize": 23
        },
        {
            "Trials": [
                {
                    "DisplayTarget": "VR",
                    "Video": "violin_video12",
                    "Response": {
                        "MouseResponse": 0,
                        "ResponseTime": 3.802734375
                    },
                    "TrialNumber": 1,
                    "ParentBatchNumber": 2
                },
                {
                    "DisplayTarget": "VR",
                    "Video": "violin_video5",
                    "Response": {
                        "MouseResponse": 0,
                        "ResponseTime": 2.8582000732421877
                    },
                    "TrialNumber": 2,
                    "ParentBatchNumber": 2
                },
                {
                    "DisplayTarget": "VR",
                    "Video": "violin_video6",
                    "Response": {
                        "MouseResponse": 0,
                        "ResponseTime": 1.6629638671875
                    },
                    "TrialNumber": 3,
                    "ParentBatchNumber": 2
                },
                {
                    "DisplayTarget": "VR",
                    "Video": "violin_video8",
                    "Response": {
                        "MouseResponse": 0,
                        "ResponseTime": 2.2562103271484377
                    },
                    "TrialNumber": 4,
                    "ParentBatchNumber": 2
                },
                {
                    "DisplayTarget": "VR",
                    "Video": "violin_video5",
                    "Response": {
                        "MouseResponse": 1,
                        "ResponseTime": 2.422607421875
                    },
                    "TrialNumber": 5,
                    "ParentBatchNumber": 2
                },
                {
                    "DisplayTarget": "VR",
                    "Video": "violin_video10",
                    "Response": {
                        "MouseResponse": 1,
                        "ResponseTime": 12.696701049804688
                    },
                    "TrialNumber": 6,
                    "ParentBatchNumber": 2
                },
                {
                    "DisplayTarget": "VR",
                    "Video": "violin_video8",
                    "Response": {
                        "MouseResponse": 1,
                        "ResponseTime": 3.8930816650390627
                    },
                    "TrialNumber": 7,
                    "ParentBatchNumber": 2
                },
                {
                    "DisplayTarget": "VR",
                    "Video": "violin_video8",
                    "Response": {
                        "MouseResponse": 0,
                        "ResponseTime": 3.2014007568359377
                    },
                    "TrialNumber": 8,
                    "ParentBatchNumber": 2
                },
                {
                    "DisplayTarget": "VR",
                    "Video": "violin_video13",
                    "Response": {
                        "MouseResponse": 1,
                        "ResponseTime": 3.7884368896484377
                    },
                    "TrialNumber": 9,
                    "ParentBatchNumber": 2
                },
                {
                    "DisplayTarget": "VR",
                    "Video": "violin_video9",
                    "Response": {
                        "MouseResponse": 0,
                        "ResponseTime": 3.4325103759765627
                    },
                    "TrialNumber": 10,
                    "ParentBatchNumber": 2
                },
                {
                    "DisplayTarget": "VR",
                    "Video": "violin_video12",
                    "Response": {
                        "MouseResponse": 0,
                        "ResponseTime": 3.4588165283203127
                    },
                    "TrialNumber": 11,
                    "ParentBatchNumber": 2
                },
                {
                    "DisplayTarget": "VR",
                    "Video": "violin_video7",
                    "Response": {
                        "MouseResponse": 0,
                        "ResponseTime": 3.7489013671875
                    },
                    "TrialNumber": 12,
                    "ParentBatchNumber": 2
                },
                {
                    "DisplayTarget": "VR",
                    "Video": "violin_video7",
                    "Response": {
                        "MouseResponse": 1,
                        "ResponseTime": 3.3094329833984377
                    },
                    "TrialNumber": 13,
                    "ParentBatchNumber": 2
                },
                {
                    "DisplayTarget": "VR",
                    "Video": "violin_video7",
                    "Response": {
                        "MouseResponse": 0,
                        "ResponseTime": 3.7364959716796877
                    },
                    "TrialNumber": 14,
                    "ParentBatchNumber": 2
                },
                {
                    "DisplayTarget": "VR",
                    "Video": "violin_video6",
                    "Response": {
                        "MouseResponse": 1,
                        "ResponseTime": 3.2520751953125
                    },
                    "TrialNumber": 15,
                    "ParentBatchNumber": 2
                },
                {
                    "DisplayTarget": "VR",
                    "Video": "violin_video10",
                    "Response": {
                        "MouseResponse": 1,
                        "ResponseTime": 3.8553466796875
                    },
                    "TrialNumber": 16,
                    "ParentBatchNumber": 2
                },
                {
                    "DisplayTarget": "VR",
                    "Video": "violin_video8",
                    "Response": {
                        "MouseResponse": 0,
                        "ResponseTime": 4.03424072265625
                    },
                    "TrialNumber": 17,
                    "ParentBatchNumber": 2
                },
                {
                    "DisplayTarget": "VR",
                    "Video": "violin_video13",
                    "Response": {
                        "MouseResponse": 1,
                        "ResponseTime": 4.02093505859375
                    },
                    "TrialNumber": 18,
                    "ParentBatchNumber": 2
                },
                {
                    "DisplayTarget": "VR",
                    "Video": "violin_video9",
                    "Response": {
                        "MouseResponse": 0,
                        "ResponseTime": 4.0785675048828129
                    },
                    "TrialNumber": 19,
                    "ParentBatchNumber": 2
                },
                {
                    "DisplayTarget": "VR",
                    "Video": "violin_video11",
                    "Response": {
                        "MouseResponse": 0,
                        "ResponseTime": 3.8968505859375
                    },
                    "TrialNumber": 20,
                    "ParentBatchNumber": 2
                },
                {
                    "DisplayTarget": "VR",
                    "Video": "violin_video9",
                    "Response": {
                        "MouseResponse": 0,
                        "ResponseTime": 3.958221435546875
                    },
                    "TrialNumber": 21,
                    "ParentBatchNumber": 2
                },
                {
                    "DisplayTarget": "VR",
                    "Video": "violin_video6",
                    "Response": {
                        "MouseResponse": 0,
                        "ResponseTime": 2.886016845703125
                    },
                    "TrialNumber": 22,
                    "ParentBatchNumber": 2
                },
                {
                    "DisplayTarget": "VR",
                    "Video": "violin_video13",
                    "Response": {
                        "MouseResponse": 1,
                        "ResponseTime": 3.947418212890625
                    },
                    "TrialNumber": 23,
                    "ParentBatchNumber": 2
                }
            ],
            "TargetDisplay": 0,
            "VideoType": 1,
            "IntendedBatchSize": 23
        },
        {
            "Trials": [
                {
                    "DisplayTarget": "VR",
                    "Video": "beep_video9",
                    "Response": {
                        "MouseResponse": 0,
                        "ResponseTime": 2.13812255859375
                    },
                    "TrialNumber": 1,
                    "ParentBatchNumber": 3
                },
                {
                    "DisplayTarget": "VR",
                    "Video": "beep_video5",
                    "Response": {
                        "MouseResponse": 1,
                        "ResponseTime": 2.0394439697265627
                    },
                    "TrialNumber": 2,
                    "ParentBatchNumber": 3
                },
                {
                    "DisplayTarget": "VR",
                    "Video": "beep_video12",
                    "Response": {
                        "MouseResponse": 1,
                        "ResponseTime": 2.9275054931640627
                    },
                    "TrialNumber": 3,
                    "ParentBatchNumber": 3
                },
                {
                    "DisplayTarget": "VR",
                    "Video": "beep_video7",
                    "Response": {
                        "MouseResponse": 0,
                        "ResponseTime": 3.1815643310546877
                    },
                    "TrialNumber": 4,
                    "ParentBatchNumber": 3
                },
                {
                    "DisplayTarget": "VR",
                    "Video": "beep_video12",
                    "Response": {
                        "MouseResponse": 1,
                        "ResponseTime": 1.9827728271484376
                    },
                    "TrialNumber": 5,
                    "ParentBatchNumber": 3
                },
                {
                    "DisplayTarget": "VR",
                    "Video": "beep_video13",
                    "Response": {
                        "MouseResponse": 1,
                        "ResponseTime": 2.8007354736328127
                    },
                    "TrialNumber": 6,
                    "ParentBatchNumber": 3
                },
                {
                    "DisplayTarget": "VR",
                    "Video": "beep_video13",
                    "Response": {
                        "MouseResponse": 0,
                        "ResponseTime": 3.264404296875
                    },
                    "TrialNumber": 7,
                    "ParentBatchNumber": 3
                },
                {
                    "DisplayTarget": "VR",
                    "Video": "beep_video13",
                    "Response": {
                        "MouseResponse": 1,
                        "ResponseTime": 3.497283935546875
                    },
                    "TrialNumber": 8,
                    "ParentBatchNumber": 3
                },
                {
                    "DisplayTarget": "VR",
                    "Video": "beep_video6",
                    "Response": {
                        "MouseResponse": 1,
                        "ResponseTime": 2.84442138671875
                    },
                    "TrialNumber": 9,
                    "ParentBatchNumber": 3
                },
                {
                    "DisplayTarget": "VR",
                    "Video": "beep_video12",
                    "Response": {
                        "MouseResponse": 1,
                        "ResponseTime": 2.2840576171875
                    },
                    "TrialNumber": 10,
                    "ParentBatchNumber": 3
                },
                {
                    "DisplayTarget": "VR",
                    "Video": "beep_video6",
                    "Response": {
                        "MouseResponse": 0,
                        "ResponseTime": 2.363067626953125
                    },
                    "TrialNumber": 11,
                    "ParentBatchNumber": 3
                },
                {
                    "DisplayTarget": "VR",
                    "Video": "beep_video7",
                    "Response": {
                        "MouseResponse": 0,
                        "ResponseTime": 2.509857177734375
                    },
                    "TrialNumber": 12,
                    "ParentBatchNumber": 3
                },
                {
                    "DisplayTarget": "VR",
                    "Video": "beep_video12",
                    "Response": {
                        "MouseResponse": 0,
                        "ResponseTime": 2.533294677734375
                    },
                    "TrialNumber": 13,
                    "ParentBatchNumber": 3
                },
                {
                    "DisplayTarget": "VR",
                    "Video": "beep_video10",
                    "Response": {
                        "MouseResponse": 0,
                        "ResponseTime": 2.47564697265625
                    },
                    "TrialNumber": 14,
                    "ParentBatchNumber": 3
                },
                {
                    "DisplayTarget": "VR",
                    "Video": "beep_video5",
                    "Response": {
                        "MouseResponse": 1,
                        "ResponseTime": 1.999786376953125
                    },
                    "TrialNumber": 15,
                    "ParentBatchNumber": 3
                },
                {
                    "DisplayTarget": "VR",
                    "Video": "beep_video6",
                    "Response": {
                        "MouseResponse": 0,
                        "ResponseTime": 2.7802734375
                    },
                    "TrialNumber": 16,
                    "ParentBatchNumber": 3
                },
                {
                    "DisplayTarget": "VR",
                    "Video": "beep_video11",
                    "Response": {
                        "MouseResponse": 0,
                        "ResponseTime": 2.943695068359375
                    },
                    "TrialNumber": 17,
                    "ParentBatchNumber": 3
                },
                {
                    "DisplayTarget": "VR",
                    "Video": "beep_video5",
                    "Response": {
                        "MouseResponse": 1,
                        "ResponseTime": 2.52972412109375
                    },
                    "TrialNumber": 18,
                    "ParentBatchNumber": 3
                },
                {
                    "DisplayTarget": "VR",
                    "Video": "beep_video10",
                    "Response": {
                        "MouseResponse": 1,
                        "ResponseTime": 3.4083251953125
                    },
                    "TrialNumber": 19,
                    "ParentBatchNumber": 3
                },
                {
                    "DisplayTarget": "VR",
                    "Video": "beep_video6",
                    "Response": {
                        "MouseResponse": 0,
                        "ResponseTime": 2.901519775390625
                    },
                    "TrialNumber": 20,
                    "ParentBatchNumber": 3
                },
                {
                    "DisplayTarget": "VR",
                    "Video": "beep_video7",
                    "Response": {
                        "MouseResponse": 1,
                        "ResponseTime": 2.157928466796875
                    },
                    "TrialNumber": 21,
                    "ParentBatchNumber": 3
                },
                {
                    "DisplayTarget": "VR",
                    "Video": "beep_video10",
                    "Response": {
                        "MouseResponse": 1,
                        "ResponseTime": 2.249298095703125
                    },
                    "TrialNumber": 22,
                    "ParentBatchNumber": 3
                }
            ],
            "TargetDisplay": 0,
            "VideoType": 0,
            "IntendedBatchSize": 22
        },
        {
            "Trials": [
                {
                    "DisplayTarget": "VR",
                    "Video": "violin_video5",
                    "Response": {
                        "MouseResponse": 0,
                        "ResponseTime": 3.499114990234375
                    },
                    "TrialNumber": 1,
                    "ParentBatchNumber": 4
                },
                {
                    "DisplayTarget": "VR",
                    "Video": "violin_video7",
                    "Response": {
                        "MouseResponse": 0,
                        "ResponseTime": 3.7138671875
                    },
                    "TrialNumber": 2,
                    "ParentBatchNumber": 4
                },
                {
                    "DisplayTarget": "VR",
                    "Video": "violin_video11",
                    "Response": {
                        "MouseResponse": 1,
                        "ResponseTime": 3.809234619140625
                    },
                    "TrialNumber": 3,
                    "ParentBatchNumber": 4
                },
                {
                    "DisplayTarget": "VR",
                    "Video": "violin_video5",
                    "Response": {
                        "MouseResponse": 1,
                        "ResponseTime": 3.8629150390625
                    },
                    "TrialNumber": 4,
                    "ParentBatchNumber": 4
                },
                {
                    "DisplayTarget": "VR",
                    "Video": "violin_video11",
                    "Response": {
                        "MouseResponse": 0,
                        "ResponseTime": 3.1207275390625
                    },
                    "TrialNumber": 5,
                    "ParentBatchNumber": 4
                },
                {
                    "DisplayTarget": "VR",
                    "Video": "violin_video12",
                    "Response": {
                        "MouseResponse": 0,
                        "ResponseTime": 3.916107177734375
                    },
                    "TrialNumber": 6,
                    "ParentBatchNumber": 4
                },
                {
                    "DisplayTarget": "VR",
                    "Video": "violin_video10",
                    "Response": {
                        "MouseResponse": 0,
                        "ResponseTime": 3.761474609375
                    },
                    "TrialNumber": 7,
                    "ParentBatchNumber": 4
                },
                {
                    "DisplayTarget": "VR",
                    "Video": "violin_video7",
                    "Response": {
                        "MouseResponse": 0,
                        "ResponseTime": 4.092437744140625
                    },
                    "TrialNumber": 8,
                    "ParentBatchNumber": 4
                },
                {
                    "DisplayTarget": "VR",
                    "Video": "violin_video12",
                    "Response": {
                        "MouseResponse": 1,
                        "ResponseTime": 2.93756103515625
                    },
                    "TrialNumber": 9,
                    "ParentBatchNumber": 4
                },
                {
                    "DisplayTarget": "VR",
                    "Video": "violin_video13",
                    "Response": {
                        "MouseResponse": 1,
                        "ResponseTime": 4.080352783203125
                    },
                    "TrialNumber": 10,
                    "ParentBatchNumber": 4
                },
                {
                    "DisplayTarget": "VR",
                    "Video": "violin_video11",
                    "Response": {
                        "MouseResponse": 0,
                        "ResponseTime": 3.686004638671875
                    },
                    "TrialNumber": 11,
                    "ParentBatchNumber": 4
                },
                {
                    "DisplayTarget": "VR",
                    "Video": "violin_video10",
                    "Response": {
                        "MouseResponse": 0,
                        "ResponseTime": 3.9317626953125
                    },
                    "TrialNumber": 12,
                    "ParentBatchNumber": 4
                },
                {
                    "DisplayTarget": "VR",
                    "Video": "violin_video5",
                    "Response": {
                        "MouseResponse": 1,
                        "ResponseTime": 3.985321044921875
                    },
                    "TrialNumber": 13,
                    "ParentBatchNumber": 4
                },
                {
                    "DisplayTarget": "VR",
                    "Video": "violin_video8",
                    "Response": {
                        "MouseResponse": 1,
                        "ResponseTime": 3.8431396484375
                    },
                    "TrialNumber": 14,
                    "ParentBatchNumber": 4
                },
                {
                    "DisplayTarget": "VR",
                    "Video": "violin_video12",
                    "Response": {
                        "MouseResponse": 1,
                        "ResponseTime": 3.924957275390625
                    },
                    "TrialNumber": 15,
                    "ParentBatchNumber": 4
                },
                {
                    "DisplayTarget": "VR",
                    "Video": "violin_video6",
                    "Response": {
                        "MouseResponse": 0,
                        "ResponseTime": 3.86114501953125
                    },
                    "TrialNumber": 16,
                    "ParentBatchNumber": 4
                },
                {
                    "DisplayTarget": "VR",
                    "Video": "violin_video9",
                    "Response": {
                        "MouseResponse": 0,
                        "ResponseTime": 4.30194091796875
                    },
                    "TrialNumber": 17,
                    "ParentBatchNumber": 4
                },
                {
                    "DisplayTarget": "VR",
                    "Video": "violin_video6",
                    "Response": {
                        "MouseResponse": 0,
                        "ResponseTime": 3.828643798828125
                    },
                    "TrialNumber": 18,
                    "ParentBatchNumber": 4
                },
                {
                    "DisplayTarget": "VR",
                    "Video": "violin_video9",
                    "Response": {
                        "MouseResponse": 1,
                        "ResponseTime": 3.809234619140625
                    },
                    "TrialNumber": 19,
                    "ParentBatchNumber": 4
                },
                {
                    "DisplayTarget": "VR",
                    "Video": "violin_video10",
                    "Response": {
                        "MouseResponse": 1,
                        "ResponseTime": 3.81585693359375
                    },
                    "TrialNumber": 20,
                    "ParentBatchNumber": 4
                },
                {
                    "DisplayTarget": "VR",
                    "Video": "violin_video11",
                    "Response": {
                        "MouseResponse": 0,
                        "ResponseTime": 3.847808837890625
                    },
                    "TrialNumber": 21,
                    "ParentBatchNumber": 4
                },
                {
                    "DisplayTarget": "VR",
                    "Video": "violin_video13",
                    "Response": {
                        "MouseResponse": 1,
                        "ResponseTime": 3.881011962890625
                    },
                    "TrialNumber": 22,
                    "ParentBatchNumber": 4
                }
            ],
            "TargetDisplay": 0,
            "VideoType": 1,
            "IntendedBatchSize": 22
        }
    ]
}